File: Other original data/DIL/ExpDat_Sample-HNXSQ-27.csv
#EXPORTTYPE:       ,DATA ALL
#FILE:             ,样品2.ngb-dla
#FORMAT:           ,NETZSCH5
#FTYPE:            ,ANSI
#IDENTITY:         ,样品2
#DECIMAL:          ,POINT
#SEPARATOR:        ,COMMA
#MTYPE:            ,DIL
#INSTRUMENT:       ,NETZSCH DIL 402SE
#PROJECT:          ,
#DATE/TIME:        ,2024/7/11 15:50:59 (UTC+8)
#CORR. FILE:       ,Al2O3-5-2.ngb-cla
#TEMPCAL:          ,TCALZERO.TMX
#LABORATORY:       ,
#OPERATOR:         ,
#REMARK:           ,
#SAMPLE:           ,样品2
#SAMPLE LENGTH /mm:,11.905
#MATERIAL:         ,
#MEASMODE:         ,Standard Expansion
#PROTECTIVE MFC:   ,NITROGEN,250.0 ml/min
#M.RANGE /μm:      ,20000
#CORR. CODE:       ,080
#RANGE:            ,25°C/5.0(K/min)/1360°C
#SEGMENT:          ,S1/1
#SEG. 1:           ,25°C/5.0(K/min)/1360°C

##Temp./°C,Time/min,dL/Lo
  30.44100,  0.00000, 6.044947e-05
  31.44100,  0.44165, 7.703174e-06
  32.44100,  1.05458,-3.846714e-05
  33.44100,  1.76371,-5.824668e-05
  34.44100,  2.35329,-4.215944e-05
  35.44100,  2.80035,-2.954265e-05
  36.44100,  3.16694,-6.346065e-06
  37.44100,  3.48860, 1.263100e-05
  38.44100,  3.77814, 3.084325e-05
  39.44100,  4.04395, 4.896905e-05
  40.44100,  4.29150, 6.812045e-05
  41.44100,  4.52292, 8.200894e-05
  42.44100,  4.74114, 9.616064e-05
  43.44100,  4.95057, 1.090733e-04
  44.44100,  5.15271, 1.213399e-04
  45.44100,  5.34684, 1.352884e-04
  46.44100,  5.53418, 1.467964e-04
  47.44100,  5.71661, 1.576756e-04
  48.44100,  5.89425, 1.688381e-04
  49.44100,  6.06801, 1.786436e-04
  50.44100,  6.23897, 1.882750e-04
  51.44100,  6.40729, 1.968445e-04
  52.44100,  6.57333, 2.047914e-04
  53.44100,  6.73697, 2.124287e-04
  54.44100,  6.89825, 2.187756e-04
  55.44100,  7.05723, 2.237154e-04
  56.44100,  7.21531, 2.289244e-04
  57.44100,  7.37288, 2.354290e-04
  58.44100,  7.52925, 2.401348e-04
  59.44100,  7.68537, 2.455825e-04
  60.44100,  7.84083, 2.495122e-04
  61.44100,  7.99605, 2.516336e-04
  62.44100,  8.15147, 2.542274e-04
  63.44100,  8.30670, 2.566311e-04
  64.44100,  8.46159, 2.588530e-04
  65.44100,  8.61668, 2.611178e-04
  66.44100,  8.77308, 2.631124e-04
  67.44100,  8.92997, 2.623665e-04
  68.44100,  9.08730, 2.647624e-04
  69.44100,  9.24532, 2.634602e-04
  70.44100,  9.40473, 2.638397e-04
  71.44100,  9.56493, 2.650223e-04
  72.44100,  9.72634, 2.644238e-04
  73.44100,  9.88937, 2.654366e-04
  74.44100, 10.05453, 2.644081e-04
  75.44100, 10.22116, 2.650877e-04
  76.44100, 10.38952, 2.642895e-04
  77.44100, 10.55921, 2.625444e-04
  78.44100, 10.73129, 2.617230e-04
  79.44100, 10.90499, 2.609416e-04
  80.44100, 11.08093, 2.599313e-04
  81.44100, 11.25855, 2.575509e-04
  82.44100, 11.43796, 2.563703e-04
  83.44100, 11.61927, 2.571070e-04
  84.44100, 11.80278, 2.546336e-04
  85.44100, 11.98892, 2.551341e-04
  86.44100, 12.17669, 2.520078e-04
  87.44100, 12.36590, 2.511387e-04
  88.44100, 12.55826, 2.508520e-04
  89.44100, 12.75283, 2.526634e-04
  90.44100, 12.94833, 2.523035e-04
  91.44100, 13.14613, 2.520829e-04
  92.44100, 13.34553, 2.553611e-04
  93.44100, 13.54678, 2.567439e-04
  94.44100, 13.74934, 2.588121e-04
  95.44100, 13.95349, 2.604556e-04
  96.44100, 14.15982, 2.617370e-04
  97.44100, 14.36732, 2.645967e-04
  98.44100, 14.57512, 2.667917e-04
  99.44100, 14.78381, 2.686617e-04
 100.441, 14.99316, 2.720903e-04
 101.441, 15.20295, 2.764720e-04
 102.441, 15.41360, 2.811574e-04
 103.441, 15.62491, 2.884644e-04
 104.441, 15.83582, 2.599052e-04
 105.441, 16.04617, 2.649773e-04
 106.441, 16.25698, 2.701117e-04
 107.441, 16.46789, 2.749258e-04
 108.441, 16.67816, 2.799549e-04
 109.441, 16.88732, 2.882983e-04
 110.441, 17.09587, 2.940409e-04
 111.441, 17.30395, 3.004259e-04
 112.441, 17.51155, 3.090836e-04
 113.441, 17.71851, 3.157537e-04
 114.441, 17.92472, 3.222640e-04
 115.441, 18.12974, 3.293972e-04
 116.441, 18.33362, 3.351656e-04
 117.441, 18.53773, 3.434728e-04
 118.441, 18.74099, 3.513460e-04
 119.441, 18.94283, 3.588811e-04
 120.441, 19.14410, 3.658676e-04
 121.441, 19.34457, 3.748038e-04
 122.441, 19.54467, 3.816905e-04
 123.441, 19.74411, 3.886902e-04
 124.441, 19.94247, 3.975771e-04
 125.441, 20.14061, 4.073773e-04
 126.441, 20.33819, 4.142572e-04
 127.441, 20.53540, 4.214355e-04
 128.441, 20.73250, 4.300257e-04
 129.441, 20.92967, 4.368079e-04
 130.441, 21.12642, 4.443473e-04
 131.441, 21.32299, 4.518393e-04
 132.441, 21.51887, 4.585602e-04
 133.441, 21.71487, 4.664782e-04
 134.441, 21.91160, 4.708965e-04
 135.441, 22.10891, 4.806064e-04
 136.441, 22.30589, 4.865592e-04
 137.441, 22.50194, 4.948342e-04
 138.441, 22.69815, 5.019159e-04
 139.441, 22.89460, 5.083730e-04
 140.441, 23.09144, 5.171750e-04
 141.441, 23.28778, 5.244038e-04
 142.441, 23.48405, 5.318356e-04
 143.441, 23.68070, 5.384132e-04
 144.441, 23.87787, 5.457021e-04
 145.441, 24.07515, 5.534949e-04
 146.441, 24.27250, 5.594881e-04
 147.441, 24.47053, 5.684858e-04
 148.441, 24.66947, 5.746092e-04
 149.441, 24.86856, 5.825304e-04
 150.441, 25.06703, 5.901795e-04
 151.441, 25.26587, 5.961311e-04
 152.441, 25.46580, 6.036464e-04
 153.441, 25.66553, 6.121912e-04
 154.441, 25.86516, 6.192250e-04
 155.441, 26.06460, 6.249208e-04
 156.441, 26.26391, 6.338780e-04
 157.441, 26.46386, 6.397826e-04
 158.441, 26.66445, 6.503291e-04
 159.441, 26.86523, 6.566440e-04
 160.441, 27.06584, 6.638865e-04
 161.441, 27.26618, 6.709729e-04
 162.441, 27.46652, 6.791907e-04
 163.441, 27.66703, 6.866998e-04
 164.441, 27.86812, 6.944101e-04
 165.441, 28.06891, 7.033570e-04
 166.441, 28.26921, 7.101105e-04
 167.441, 28.46925, 7.203246e-04
 168.441, 28.66949, 7.272099e-04
 169.441, 28.87042, 7.346393e-04
 170.441, 29.07143, 7.425980e-04
 171.441, 29.27223, 7.510411e-04
 172.441, 29.47282, 7.577594e-04
 173.441, 29.67310, 7.665128e-04
 174.441, 29.87279, 7.739914e-04
 175.441, 30.07255, 7.810649e-04
 176.441, 30.27308, 7.886327e-04
 177.441, 30.47334, 7.963875e-04
 178.441, 30.67314, 8.039307e-04
 179.441, 30.87297, 8.105607e-04
 180.441, 31.07234, 8.181305e-04
 181.441, 31.27175, 8.244702e-04
 182.441, 31.47142, 8.332846e-04
 183.441, 31.67052, 8.428463e-04
 184.441, 31.86998, 8.494869e-04
 185.441, 32.06961, 8.585544e-04
 186.441, 32.26903, 8.665858e-04
 187.441, 32.46838, 8.743435e-04
 188.441, 32.66736, 8.832398e-04
 189.441, 32.86711, 8.901753e-04
 190.441, 33.06720, 8.973094e-04
 191.441, 33.26690, 9.063539e-04
 192.441, 33.46705, 9.147740e-04
 193.441, 33.66649, 9.227988e-04
 194.441, 33.86564, 9.300849e-04
 195.441, 34.06530, 9.391479e-04
 196.441, 34.26519, 9.461271e-04
 197.441, 34.46539, 9.591114e-04
 198.441, 34.66524, 9.619182e-04
 199.441, 34.86518, 9.702560e-04
 200.441, 35.06558, 9.793801e-04
 201.441, 35.26617, 9.869131e-04
 202.441, 35.46638, 9.938834e-04
 203.441, 35.66508, 1.002358e-03
 204.441, 35.86413, 1.010042e-03
 205.441, 36.06444, 1.017749e-03
 206.441, 36.26481, 1.026520e-03
 207.441, 36.46470, 1.033626e-03
 208.441, 36.66488, 1.042152e-03
 209.441, 36.86515, 1.050589e-03
 210.441, 37.06509, 1.059232e-03
 211.441, 37.26443, 1.065720e-03
 212.441, 37.46442, 1.074807e-03
 213.441, 37.66440, 1.082564e-03
 214.441, 37.86432, 1.090203e-03
 215.441, 38.06455, 1.097235e-03
 216.441, 38.26454, 1.106543e-03
 217.441, 38.46486, 1.112533e-03
 218.441, 38.66545, 1.119960e-03
 219.441, 38.86592, 1.127605e-03
 220.441, 39.06615, 1.134585e-03
 221.441, 39.26598, 1.141449e-03
 222.441, 39.46593, 1.149292e-03
 223.441, 39.66620, 1.156717e-03
 224.441, 39.86641, 1.164251e-03
 225.441, 40.06667, 1.171622e-03
 226.441, 40.26708, 1.178947e-03
 227.441, 40.46645, 1.186597e-03
 228.441, 40.66547, 1.194577e-03
 229.441, 40.86540, 1.201107e-03
 230.441, 41.06625, 1.208343e-03
 231.441, 41.26663, 1.215805e-03
 232.441, 41.46676, 1.222527e-03
 233.441, 41.66669, 1.231000e-03
 234.441, 41.86638, 1.235995e-03
 235.441, 42.06588, 1.244979e-03
 236.441, 42.26578, 1.251630e-03
 237.441, 42.46621, 1.259395e-03
 238.441, 42.66629, 1.264983e-03
 239.441, 42.86576, 1.271717e-03
 240.441, 43.06589, 1.281030e-03
 241.441, 43.26605, 1.286034e-03
 242.441, 43.46545, 1.294076e-03
 243.441, 43.66553, 1.299868e-03
 244.441, 43.86602, 1.306659e-03
 245.441, 44.06604, 1.314078e-03
 246.441, 44.26606, 1.319221e-03
 247.441, 44.46613, 1.325677e-03
 248.441, 44.66627, 1.333905e-03
 249.441, 44.86609, 1.340154e-03
 250.441, 45.06606, 1.346338e-03
 251.441, 45.26592, 1.353949e-03
 252.441, 45.46602, 1.361036e-03
 253.441, 45.66577, 1.366269e-03
 254.441, 45.86528, 1.373715e-03
 255.441, 46.06530, 1.380684e-03
 256.441, 46.26554, 1.385788e-03
 257.441, 46.46546, 1.392332e-03
 258.441, 46.66523, 1.398894e-03
 259.441, 46.86548, 1.403919e-03
 260.441, 47.06522, 1.411071e-03
 261.441, 47.26479, 1.417396e-03
 262.441, 47.46563, 1.425100e-03
 263.441, 47.66592, 1.428741e-03
 264.441, 47.86545, 1.435859e-03
 265.441, 48.06531, 1.443630e-03
 266.441, 48.26491, 1.448618e-03
 267.441, 48.46463, 1.454997e-03
 268.441, 48.66509, 1.461861e-03
 269.441, 48.86513, 1.468646e-03
 270.441, 49.06475, 1.474793e-03
 271.441, 49.26474, 1.480781e-03
 272.441, 49.46523, 1.487851e-03
 273.441, 49.66529, 1.494425e-03
 274.441, 49.86559, 1.499739e-03
 275.441, 50.06539, 1.506893e-03
 276.441, 50.26555, 1.513842e-03
 277.441, 50.46627, 1.519293e-03
 278.441, 50.66656, 1.525606e-03
 279.441, 50.86665, 1.531893e-03
 280.441, 51.06647, 1.538577e-03
 281.441, 51.26609, 1.544163e-03
 282.441, 51.46623, 1.551715e-03
 283.441, 51.66666, 1.557622e-03
 284.441, 51.86676, 1.561469e-03
 285.441, 52.06710, 1.569112e-03
 286.441, 52.26741, 1.574849e-03
 287.441, 52.46706, 1.579326e-03
 288.441, 52.66661, 1.587165e-03
 289.441, 52.86674, 1.593502e-03
 290.441, 53.06697, 1.598105e-03
 291.441, 53.26695, 1.603389e-03
 292.441, 53.46698, 1.611046e-03
 293.441, 53.66696, 1.617589e-03
 294.441, 53.86683, 1.621797e-03
 295.441, 54.06695, 1.629163e-03
 296.441, 54.26743, 1.633014e-03
 297.441, 54.46753, 1.638520e-03
 298.441, 54.66753, 1.645244e-03
 299.441, 54.86789, 1.651664e-03
 300.441, 55.06838, 1.655128e-03
 301.441, 55.26861, 1.663343e-03
 302.441, 55.46828, 1.667689e-03
 303.441, 55.66803, 1.672390e-03
 304.441, 55.86761, 1.680069e-03
 305.441, 56.06737, 1.683314e-03
 306.441, 56.26761, 1.688793e-03
 307.441, 56.46807, 1.695926e-03
 308.441, 56.66813, 1.702329e-03
 309.441, 56.86755, 1.706680e-03
 310.441, 57.06712, 1.710983e-03
 311.441, 57.26693, 1.718755e-03
 312.441, 57.46682, 1.722996e-03
 313.441, 57.66711, 1.728237e-03
 314.441, 57.86744, 1.736441e-03
 315.441, 58.06722, 1.741336e-03
 316.441, 58.26725, 1.746120e-03
 317.441, 58.46809, 1.753758e-03
 318.441, 58.66837, 1.759341e-03
 319.441, 58.86801, 1.762810e-03
 320.441, 59.06813, 1.769592e-03
 321.441, 59.26835, 1.776733e-03
 322.441, 59.46889, 1.780431e-03
 323.441, 59.66891, 1.784659e-03
 324.441, 59.86875, 1.792399e-03
 325.441, 60.06906, 1.797586e-03
 326.441, 60.26900, 1.801554e-03
 327.441, 60.46883, 1.809839e-03
 328.441, 60.66894, 1.814414e-03
 329.441, 60.86898, 1.819878e-03
 330.441, 61.06892, 1.825366e-03
 331.441, 61.26912, 1.832118e-03
 332.441, 61.46981, 1.836301e-03
 333.441, 61.66981, 1.842452e-03
 334.441, 61.86968, 1.850246e-03
 335.441, 62.06953, 1.853593e-03
 336.441, 62.26959, 1.860483e-03
 337.441, 62.47002, 1.865430e-03
 338.441, 62.67037, 1.872288e-03
 339.441, 62.87073, 1.877922e-03
 340.441, 63.07042, 1.884580e-03
 341.441, 63.27003, 1.890410e-03
 342.441, 63.47015, 1.895099e-03
 343.441, 63.67046, 1.901973e-03
 344.441, 63.87039, 1.906454e-03
 345.441, 64.07043, 1.912618e-03
 346.441, 64.27119, 1.918291e-03
 347.441, 64.47134, 1.925036e-03
 348.441, 64.67117, 1.927820e-03
 349.441, 64.87155, 1.935582e-03
 350.441, 65.07190, 1.940729e-03
 351.441, 65.27169, 1.945139e-03
 352.441, 65.47120, 1.948036e-03
 353.441, 65.67154, 1.955420e-03
 354.441, 65.87161, 1.961196e-03
 355.441, 66.07107, 1.967144e-03
 356.441, 66.27126, 1.974431e-03
 357.441, 66.47107, 1.978320e-03
 358.441, 66.67109, 1.987078e-03
 359.441, 66.87155, 1.992238e-03
 360.441, 67.07146, 1.999516e-03
 361.441, 67.27125, 2.002472e-03
 362.441, 67.47133, 2.009549e-03
 363.441, 67.67142, 2.015285e-03
 364.441, 67.87158, 2.019822e-03
 365.441, 68.07216, 2.024764e-03
 366.441, 68.27237, 2.032486e-03
 367.441, 68.47219, 2.037939e-03
 368.441, 68.67231, 2.042915e-03
 369.441, 68.87224, 2.049801e-03
 370.441, 69.07230, 2.055289e-03
 371.441, 69.27265, 2.060651e-03
 372.441, 69.47261, 2.069095e-03
 373.441, 69.67257, 2.073130e-03
 374.441, 69.87259, 2.079510e-03
 375.441, 70.07282, 2.086085e-03
 376.441, 70.27327, 2.092035e-03
 377.441, 70.47312, 2.096845e-03
 378.441, 70.67289, 2.103259e-03
 379.441, 70.87295, 2.110132e-03
 380.441, 71.07293, 2.114152e-03
 381.441, 71.27291, 2.120013e-03
 382.441, 71.47325, 2.128225e-03
 383.441, 71.67334, 2.132867e-03
 384.441, 71.87329, 2.137824e-03
 385.441, 72.07361, 2.145557e-03
 386.441, 72.27373, 2.150515e-03
 387.441, 72.47371, 2.156045e-03
 388.441, 72.67379, 2.164624e-03
 389.441, 72.87380, 2.168849e-03
 390.441, 73.07403, 2.174379e-03
 391.441, 73.27427, 2.181961e-03
 392.441, 73.47416, 2.185424e-03
 393.441, 73.67403, 2.193027e-03
 394.441, 73.87440, 2.199954e-03
 395.441, 74.07453, 2.204822e-03
 396.441, 74.27456, 2.211594e-03
 397.441, 74.47474, 2.219813e-03
 398.441, 74.67512, 2.225335e-03
 399.441, 74.87518, 2.230395e-03
 400.441, 75.07467, 2.239371e-03
 401.441, 75.27486, 2.244859e-03
 402.441, 75.47504, 2.251038e-03
 403.441, 75.67488, 2.257786e-03
 404.441, 75.87476, 2.263099e-03
 405.441, 76.07508, 2.269854e-03
 406.441, 76.27554, 2.277313e-03
 407.441, 76.47523, 2.282990e-03
 408.441, 76.67508, 2.289282e-03
 409.441, 76.87522, 2.296122e-03
 410.441, 77.07551, 2.303872e-03
 411.441, 77.27563, 2.308499e-03
 412.441, 77.47566, 2.315882e-03
 413.441, 77.67562, 2.322591e-03
 414.441, 77.87547, 2.329216e-03
 415.441, 78.07566, 2.335448e-03
 416.441, 78.27563, 2.343262e-03
 417.441, 78.47549, 2.347818e-03
 418.441, 78.67593, 2.356236e-03
 419.441, 78.87610, 2.362001e-03
 420.441, 79.07572, 2.369223e-03
 421.441, 79.27588, 2.376236e-03
 422.441, 79.47612, 2.385061e-03
 423.441, 79.67634, 2.389616e-03
 424.441, 79.87658, 2.397374e-03
 425.441, 80.07663, 2.405086e-03
 426.441, 80.27661, 2.409760e-03
 427.441, 80.47631, 2.416293e-03
 428.441, 80.67649, 2.423989e-03
 429.441, 80.87687, 2.430735e-03
 430.441, 81.07697, 2.438259e-03
 431.441, 81.27677, 2.446568e-03
 432.441, 81.47665, 2.452589e-03
 433.441, 81.67710, 2.461194e-03
 434.441, 81.87733, 2.467017e-03
 435.441, 82.07715, 2.474293e-03
 436.441, 82.27724, 2.478714e-03
 437.441, 82.47750, 2.488135e-03
 438.441, 82.67764, 2.497508e-03
 439.441, 82.87754, 2.503836e-03
 440.441, 83.07730, 2.511744e-03
 441.441, 83.27732, 2.519502e-03
 442.441, 83.47775, 2.526681e-03
 443.441, 83.67791, 2.532203e-03
 444.441, 83.87793, 2.541551e-03
 445.441, 84.07817, 2.546636e-03
 446.441, 84.27820, 2.553408e-03
 447.441, 84.47835, 2.561979e-03
 448.441, 84.67853, 2.567970e-03
 449.441, 84.87843, 2.576254e-03
 450.441, 85.07886, 2.584372e-03
 451.441, 85.27914, 2.591761e-03
 452.441, 85.47834, 2.600389e-03
 453.441, 85.67798, 2.606502e-03
 454.441, 85.87835, 2.614071e-03
 455.441, 86.07843, 2.621471e-03
 456.441, 86.27867, 2.630223e-03
 457.441, 86.47863, 2.636548e-03
 458.441, 86.67874, 2.644200e-03
 459.441, 86.87874, 2.653706e-03
 460.441, 87.07877, 2.660920e-03
 461.441, 87.27893, 2.666199e-03
 462.441, 87.47899, 2.676626e-03
 463.441, 87.67912, 2.683133e-03
 464.441, 87.87924, 2.690702e-03
 465.441, 88.07939, 2.699474e-03
 466.441, 88.27935, 2.708310e-03
 467.441, 88.47936, 2.716722e-03
 468.441, 88.67968, 2.725355e-03
 469.441, 88.87950, 2.735236e-03
 470.441, 89.07951, 2.741359e-03
 471.441, 89.27998, 2.749920e-03
 472.441, 89.47992, 2.758778e-03
 473.441, 89.68007, 2.766976e-03
 474.441, 89.88018, 2.774631e-03
 475.441, 90.07983, 2.784651e-03
 476.441, 90.27990, 2.791488e-03
 477.441, 90.48029, 2.802190e-03
 478.441, 90.68037, 2.810937e-03
 479.441, 90.88039, 2.820742e-03
 480.441, 91.08048, 2.827589e-03
 481.441, 91.28027, 2.836307e-03
 482.441, 91.48032, 2.845802e-03
 483.441, 91.68024, 2.853590e-03
 484.441, 91.88034, 2.863536e-03
 485.441, 92.08059, 2.870861e-03
 486.441, 92.28065, 2.880374e-03
 487.441, 92.48075, 2.890960e-03
 488.441, 92.68111, 2.898517e-03
 489.441, 92.88138, 2.906687e-03
 490.441, 93.08121, 2.916703e-03
 491.441, 93.28130, 2.926661e-03
 492.441, 93.48172, 2.933006e-03
 493.441, 93.68177, 2.943353e-03
 494.441, 93.88147, 2.953551e-03
 495.441, 94.08146, 2.960369e-03
 496.441, 94.28168, 2.970218e-03
 497.441, 94.48214, 2.979890e-03
 498.441, 94.68228, 2.989628e-03
 499.441, 94.88224, 2.998369e-03
 500.441, 95.08217, 3.009713e-03
 501.441, 95.28220, 3.018101e-03
 502.441, 95.48209, 3.028569e-03
 503.441, 95.68199, 3.036385e-03
 504.441, 95.88198, 3.047029e-03
 505.441, 96.08192, 3.055874e-03
 506.441, 96.28219, 3.067699e-03
 507.441, 96.48223, 3.077173e-03
 508.441, 96.68220, 3.085649e-03
 509.441, 96.88243, 3.098393e-03
 510.441, 97.08212, 3.105672e-03
 511.441, 97.28218, 3.116970e-03
 512.441, 97.48222, 3.126658e-03
 513.441, 97.68215, 3.138753e-03
 514.441, 97.88205, 3.147805e-03
 515.441, 98.08219, 3.160407e-03
 516.441, 98.28260, 3.169844e-03
 517.441, 98.48254, 3.179966e-03
 518.441, 98.68239, 3.191792e-03
 519.441, 98.88246, 3.203209e-03
 520.441, 99.08219, 3.212896e-03
 521.441, 99.28233, 3.224250e-03
 522.441, 99.48236, 3.235079e-03
 523.441, 99.68231, 3.246621e-03
 524.441, 99.88218, 3.258077e-03
 525.441,100.082, 3.269354e-03
 526.441,100.282, 3.280461e-03
 527.441,100.482, 3.293419e-03
 528.441,100.682, 3.306163e-03
 529.441,100.882, 3.315410e-03
 530.441,101.082, 3.328213e-03
 531.441,101.283, 3.340468e-03
 532.441,101.483, 3.350707e-03
 533.441,101.683, 3.365355e-03
 534.441,101.883, 3.376915e-03
 535.441,102.083, 3.389145e-03
 536.441,102.283, 3.403781e-03
 537.441,102.482, 3.416661e-03
 538.441,102.682, 3.425714e-03
 539.441,102.882, 3.438893e-03
 540.441,103.082, 3.450950e-03
 541.441,103.282, 3.463047e-03
 542.441,103.482, 3.477842e-03
 543.441,103.682, 3.490970e-03
 544.441,103.883, 3.503852e-03
 545.441,104.082, 3.519315e-03
 546.441,104.282, 3.534426e-03
 547.441,104.483, 3.545513e-03
 548.441,104.682, 3.560524e-03
 549.441,104.882, 3.578059e-03
 550.441,105.082, 3.590994e-03
 551.441,105.282, 3.607944e-03
 552.441,105.482, 3.623746e-03
 553.441,105.682, 3.634669e-03
 554.441,105.882, 3.654275e-03
 555.441,106.082, 3.668294e-03
 556.441,106.282, 3.685978e-03
 557.441,106.482, 3.699779e-03
 558.441,106.683, 3.716832e-03
 559.441,106.883, 3.733066e-03
 560.441,107.083, 3.749195e-03
 561.441,107.282, 3.765307e-03
 562.441,107.482, 3.780404e-03
 563.441,107.682, 3.794873e-03
 564.441,107.883, 3.811657e-03
 565.441,108.083, 3.830410e-03
 566.441,108.283, 3.844483e-03
 567.441,108.482, 3.863225e-03
 568.441,108.682, 3.880259e-03
 569.441,108.882, 3.891740e-03
 570.441,109.082, 3.908360e-03
 571.441,109.282, 3.923523e-03
 572.441,109.483, 3.934639e-03
 573.441,109.682, 3.945235e-03
 574.441,109.882, 3.960925e-03
 575.441,110.082, 3.970629e-03
 576.441,110.282, 3.980934e-03
 577.441,110.482, 3.991305e-03
 578.441,110.682, 4.000179e-03
 579.441,110.882, 4.007310e-03
 580.441,111.082, 4.017129e-03
 581.441,111.282, 4.026986e-03
 582.441,111.482, 4.033962e-03
 583.441,111.683, 4.041207e-03
 584.441,111.882, 4.051233e-03
 585.441,112.083, 4.056023e-03
 586.441,112.283, 4.064825e-03
 587.441,112.483, 4.071528e-03
 588.441,112.683, 4.075870e-03
 589.441,112.882, 4.080901e-03
 590.441,113.083, 4.089477e-03
 591.441,113.283, 4.092567e-03
 592.441,113.483, 4.097200e-03
 593.441,113.683, 4.102842e-03
 594.441,113.883, 4.105821e-03
 595.441,114.083, 4.108760e-03
 596.441,114.283, 4.113262e-03
 597.441,114.483, 4.118666e-03
 598.441,114.683, 4.120567e-03
 599.441,114.883, 4.126312e-03
 600.441,115.083, 4.130559e-03
 601.441,115.282, 4.131339e-03
 602.441,115.483, 4.134538e-03
 603.441,115.683, 4.139615e-03
 604.441,115.883, 4.139165e-03
 605.441,116.083, 4.145719e-03
 606.441,116.283, 4.150026e-03
 607.441,116.483, 4.151289e-03
 608.441,116.683, 4.154377e-03
 609.441,116.882, 4.158918e-03
 610.441,117.083, 4.158485e-03
 611.441,117.283, 4.163231e-03
 612.441,117.483, 4.165811e-03
 613.441,117.683, 4.169156e-03
 614.441,117.883, 4.171640e-03
 615.441,118.083, 4.175991e-03
 616.441,118.283, 4.179461e-03
 617.441,118.483, 4.179820e-03
 618.441,118.683, 4.184301e-03
 619.441,118.883, 4.184520e-03
 620.441,119.083, 4.187558e-03
 621.441,119.283, 4.189348e-03
 622.441,119.483, 4.192660e-03
 623.441,119.683, 4.194540e-03
 624.441,119.883, 4.200295e-03
 625.441,120.083, 4.202210e-03
 626.441,120.283, 4.205231e-03
 627.441,120.483, 4.209045e-03
 628.441,120.683, 4.212701e-03
 629.441,120.883, 4.212807e-03
 630.441,121.083, 4.218691e-03
 631.441,121.283, 4.219939e-03
 632.441,121.483, 4.222364e-03
 633.441,121.684, 4.220414e-03
 634.441,121.883, 4.224360e-03
 635.441,122.083, 4.227064e-03
 636.441,122.283, 4.228348e-03
 637.441,122.483, 4.231910e-03
 638.441,122.683, 4.234390e-03
 639.441,122.883, 4.237304e-03
 640.441,123.083, 4.239081e-03
 641.441,123.283, 4.242432e-03
 642.441,123.483, 4.241780e-03
 643.441,123.683, 4.247778e-03
 644.441,123.883, 4.250287e-03
 645.441,124.083, 4.253548e-03
 646.441,124.283, 4.253355e-03
 647.441,124.483, 4.254953e-03
 648.441,124.684, 4.256983e-03
 649.441,124.884, 4.259748e-03
 650.441,125.083, 4.259108e-03
 651.441,125.283, 4.262776e-03
 652.441,125.483, 4.263420e-03
 653.441,125.683, 4.263872e-03
 654.441,125.883, 4.267362e-03
 655.441,126.083, 4.267976e-03
 656.441,126.283, 4.269069e-03
 657.441,126.483, 4.271878e-03
 658.441,126.683, 4.275901e-03
 659.441,126.883, 4.275828e-03
 660.441,127.083, 4.280357e-03
 661.441,127.283, 4.282516e-03
 662.441,127.484, 4.284566e-03
 663.441,127.684, 4.285509e-03
 664.441,127.884, 4.289503e-03
 665.441,128.084, 4.290623e-03
 666.441,128.284, 4.291099e-03
 667.441,128.484, 4.295757e-03
 668.441,128.684, 4.298384e-03
 669.441,128.884, 4.298765e-03
 670.441,129.084, 4.301285e-03
 671.441,129.284, 4.303224e-03
 672.441,129.484, 4.304980e-03
 673.441,129.684, 4.307420e-03
 674.441,129.884, 4.308648e-03
 675.441,130.084, 4.311581e-03
 676.441,130.284, 4.310999e-03
 677.441,130.484, 4.313540e-03
 678.441,130.684, 4.316482e-03
 679.441,130.884, 4.317363e-03
 680.441,131.084, 4.316401e-03
 681.441,131.284, 4.322817e-03
 682.441,131.484, 4.324483e-03
 683.441,131.684, 4.325351e-03
 684.441,131.884, 4.328463e-03
 685.441,132.084, 4.332096e-03
 686.441,132.284, 4.334005e-03
 687.441,132.484, 4.338360e-03
 688.441,132.684, 4.341552e-03
 689.441,132.884, 4.342736e-03
 690.441,133.084, 4.344769e-03
 691.441,133.284, 4.346178e-03
 692.441,133.484, 4.346800e-03
 693.441,133.684, 4.347311e-03
 694.441,133.884, 4.352623e-03
 695.441,134.084, 4.353576e-03
 696.441,134.284, 4.356696e-03
 697.441,134.484, 4.357787e-03
 698.441,134.684, 4.358227e-03
 699.441,134.884, 4.358689e-03
 700.441,135.084, 4.362369e-03
 701.441,135.284, 4.364773e-03
 702.441,135.484, 4.367656e-03
 703.441,135.684, 4.367495e-03
 704.441,135.884, 4.371853e-03
 705.441,136.084, 4.373760e-03
 706.441,136.284, 4.374688e-03
 707.441,136.484, 4.378245e-03
 708.441,136.684, 4.380915e-03
 709.441,136.884, 4.379668e-03
 710.441,137.084, 4.382596e-03
 711.441,137.284, 4.387207e-03
 712.441,137.484, 4.386541e-03
 713.441,137.684, 4.390875e-03
 714.441,137.884, 4.388659e-03
 715.441,138.084, 4.391887e-03
 716.441,138.284, 4.391234e-03
 717.441,138.484, 4.396603e-03
 718.441,138.684, 4.398052e-03
 719.441,138.884, 4.399352e-03
 720.441,139.084, 4.402680e-03
 721.441,139.284, 4.404196e-03
 722.441,139.484, 4.406509e-03
 723.441,139.684, 4.410230e-03
 724.441,139.884, 4.415210e-03
 725.441,140.084, 4.417052e-03
 726.441,140.284, 4.418405e-03
 727.441,140.484, 4.432056e-03
 728.441,140.685, 4.436225e-03
 729.441,140.884, 4.438240e-03
 730.441,141.084, 4.443304e-03
 731.441,141.284, 4.445641e-03
 732.441,141.484, 4.448274e-03
 733.441,141.684, 4.451850e-03
 734.441,141.885, 4.453070e-03
 735.441,142.085, 4.455450e-03
 736.441,142.285, 4.456842e-03
 737.441,142.485, 4.461882e-03
 738.441,142.685, 4.463782e-03
 739.441,142.885, 4.467321e-03
 740.441,143.084, 4.468804e-03
 741.441,143.285, 4.472190e-03
 742.441,143.485, 4.472816e-03
 743.441,143.685, 4.478059e-03
 744.441,143.885, 4.480191e-03
 745.441,144.085, 4.480338e-03
 746.441,144.285, 4.484865e-03
 747.441,144.485, 4.489741e-03
 748.441,144.685, 4.487808e-03
 749.441,144.885, 4.492550e-03
 750.441,145.085, 4.495896e-03
 751.441,145.285, 4.496085e-03
 752.441,145.485, 4.499301e-03
 753.441,145.685, 4.500521e-03
 754.441,145.884, 4.502937e-03
 755.441,146.084, 4.505097e-03
 756.441,146.284, 4.507260e-03
 757.441,146.484, 4.508580e-03
 758.441,146.684, 4.511806e-03
 759.441,146.884, 4.513979e-03
 760.441,147.084, 4.517173e-03
 761.441,147.285, 4.519217e-03
 762.441,147.485, 4.522024e-03
 763.441,147.685, 4.523336e-03
 764.441,147.885, 4.526147e-03
 765.441,148.085, 4.529618e-03
 766.441,148.285, 4.532678e-03
 767.441,148.484, 4.533731e-03
 768.441,148.685, 4.536793e-03
 769.441,148.885, 4.541201e-03
 770.441,149.085, 4.542793e-03
 771.441,149.285, 4.545799e-03
 772.441,149.485, 4.548572e-03
 773.441,149.685, 4.552078e-03
 774.441,149.885, 4.553662e-03
 775.441,150.085, 4.557686e-03
 776.441,150.285, 4.560575e-03
 777.441,150.485, 4.564617e-03
 778.441,150.685, 4.567705e-03
 779.441,150.885, 4.571475e-03
 780.441,151.085, 4.574409e-03
 781.441,151.285, 4.576861e-03
 782.441,151.485, 4.579495e-03
 783.441,151.685, 4.581840e-03
 784.441,151.885, 4.586117e-03
 785.441,152.085, 4.589051e-03
 786.441,152.285, 4.592801e-03
 787.441,152.485, 4.595272e-03
 788.441,152.685, 4.600043e-03
 789.441,152.885, 4.585745e-03
 790.441,153.086, 4.589252e-03
 791.441,153.285, 4.592479e-03
 792.441,153.485, 4.594908e-03
 793.441,153.685, 4.597893e-03
 794.441,153.885, 4.602150e-03
 795.441,154.085, 4.602997e-03
 796.441,154.285, 4.606467e-03
 797.441,154.485, 4.610306e-03
 798.441,154.685, 4.611696e-03
 799.441,154.886, 4.616969e-03
 800.441,155.085, 4.618893e-03
 801.441,155.285, 4.621762e-03
 802.441,155.485, 4.624147e-03
 803.441,155.685, 4.627945e-03
 804.441,155.885, 4.630353e-03
 805.441,156.085, 4.632842e-03
 806.441,156.285, 4.636012e-03
 807.441,156.485, 4.638278e-03
 808.441,156.685, 4.641095e-03
 809.441,156.885, 4.643457e-03
 810.441,157.086, 4.646858e-03
 811.441,157.286, 4.647998e-03
 812.441,157.485, 4.651163e-03
 813.441,157.686, 4.653836e-03
 814.441,157.885, 4.657112e-03
 815.441,158.085, 4.659565e-03
 816.441,158.285, 4.662372e-03
 817.441,158.485, 4.665796e-03
 818.441,158.685, 4.667024e-03
 819.441,158.885, 4.670468e-03
 820.441,159.085, 4.672772e-03
 821.441,159.285, 4.675834e-03
 822.441,159.485, 4.678576e-03
 823.441,159.685, 4.681420e-03
 824.441,159.885, 4.684675e-03
 825.441,160.085, 4.686314e-03
 826.441,160.285, 4.688922e-03
 827.441,160.485, 4.692243e-03
 828.441,160.685, 4.696776e-03
 829.441,160.885, 4.698295e-03
 830.441,161.086, 4.702689e-03
 831.441,161.285, 4.709484e-03
 832.441,161.485, 4.711061e-03
 833.441,161.686, 4.715350e-03
 834.441,161.886, 4.717849e-03
 835.441,162.085, 4.719119e-03
 836.441,162.285, 4.720005e-03
 837.441,162.485, 4.726104e-03
 838.441,162.685, 4.726296e-03
 839.441,162.885, 4.728614e-03
 840.441,163.086, 4.734469e-03
 841.441,163.285, 4.736139e-03
 842.441,163.485, 4.738188e-03
 843.441,163.685, 4.742287e-03
 844.441,163.886, 4.744220e-03
 845.441,164.086, 4.746492e-03
 846.441,164.286, 4.750848e-03
 847.441,164.486, 4.752327e-03
 848.441,164.686, 4.752782e-03
 849.441,164.885, 4.755851e-03
 850.441,165.086, 4.757482e-03
 851.441,165.286, 4.758419e-03
 852.441,165.486, 4.759238e-03
 853.441,165.686, 4.762472e-03
 854.441,165.886, 4.763188e-03
 855.441,166.086, 4.764918e-03
 856.441,166.286, 4.767469e-03
 857.441,166.486, 4.767852e-03
 858.441,166.686, 4.770073e-03
 859.441,166.886, 4.772757e-03
 860.441,167.086, 4.775323e-03
 861.441,167.286, 4.777780e-03
 862.441,167.486, 4.780840e-03
 863.441,167.686, 4.782555e-03
 864.441,167.886, 4.784393e-03
 865.441,168.086, 4.787174e-03
 866.441,168.286, 4.789515e-03
 867.441,168.486, 4.792042e-03
 868.441,168.686, 4.793313e-03
 869.441,168.886, 4.797960e-03
 870.441,169.086, 4.799731e-03
 871.441,169.286, 4.802542e-03
 872.441,169.486, 4.805976e-03
 873.441,169.686, 4.807482e-03
 874.441,169.886, 4.809291e-03
 875.441,170.086, 4.813152e-03
 876.441,170.286, 4.817119e-03
 877.441,170.486, 4.817668e-03
 878.441,170.686, 4.821287e-03
 879.441,170.886, 4.823841e-03
 880.441,171.086, 4.826087e-03
 881.441,171.286, 4.829766e-03
 882.441,171.486, 4.832089e-03
 883.441,171.686, 4.833299e-03
 884.441,171.886, 4.835172e-03
 885.441,172.086, 4.839210e-03
 886.441,172.286, 4.839835e-03
 887.441,172.486, 4.843160e-03
 888.441,172.687, 4.846229e-03
 889.441,172.887, 4.848132e-03
 890.441,173.086, 4.850920e-03
 891.441,173.286, 4.853209e-03
 892.441,173.486, 4.854960e-03
 893.441,173.687, 4.857957e-03
 894.441,173.887, 4.859173e-03
 895.441,174.086, 4.859780e-03
 896.441,174.286, 4.862680e-03
 897.441,174.486, 4.865240e-03
 898.441,174.687, 4.866708e-03
 899.441,174.887, 4.867614e-03
 900.441,175.086, 4.869763e-03
 901.441,175.286, 4.870990e-03
 902.441,175.486, 4.871331e-03
 903.441,175.687, 4.874659e-03
 904.441,175.887, 4.875578e-03
 905.441,176.086, 4.878477e-03
 906.441,176.287, 4.879331e-03
 907.441,176.487, 4.882321e-03
 908.441,176.686, 4.883703e-03
 909.441,176.886, 4.886335e-03
 910.441,177.086, 4.887510e-03
 911.441,177.286, 4.890867e-03
 912.441,177.486, 4.891875e-03
 913.441,177.686, 4.894560e-03
 914.441,177.886, 4.895047e-03
 915.441,178.086, 4.899243e-03
 916.441,178.286, 4.901354e-03
 917.441,178.486, 4.902351e-03
 918.441,178.686, 4.904721e-03
 919.441,178.886, 4.907342e-03
 920.441,179.086, 4.909320e-03
 921.441,179.286, 4.912011e-03
 922.441,179.486, 4.915335e-03
 923.441,179.686, 4.916775e-03
 924.441,179.886, 4.917399e-03
 925.441,180.086, 4.917589e-03
 926.441,180.286, 4.921035e-03
 927.441,180.486, 4.921575e-03
 928.441,180.686, 4.923030e-03
 929.441,180.886, 4.924546e-03
 930.441,181.086, 4.925922e-03
 931.441,181.286, 4.927691e-03
 932.441,181.486, 4.930632e-03
 933.441,181.686, 4.930480e-03
 934.441,181.886, 4.934385e-03
 935.441,182.086, 4.937788e-03
 936.441,182.286, 4.939129e-03
 937.441,182.486, 4.940557e-03
 938.441,182.686, 4.942698e-03
 939.441,182.887, 4.943866e-03
 940.441,183.087, 4.945123e-03
 941.441,183.287, 4.945637e-03
 942.441,183.487, 4.947272e-03
 943.441,183.686, 4.948559e-03
 944.441,183.886, 4.951087e-03
 945.441,184.086, 4.952169e-03
 946.441,184.286, 4.953829e-03
 947.441,184.486, 4.955299e-03
 948.441,184.687, 4.957623e-03
 949.441,184.886, 4.957777e-03
 950.441,185.086, 4.959676e-03
 951.441,185.287, 4.961474e-03
 952.441,185.487, 4.962027e-03
 953.441,185.687, 4.963840e-03
 954.441,185.887, 4.966481e-03
 955.441,186.087, 4.967195e-03
 956.441,186.287, 4.968696e-03
 957.441,186.487, 4.970884e-03
 958.441,186.686, 4.970491e-03
 959.441,186.887, 4.972413e-03
 960.441,187.087, 4.973237e-03
 961.441,187.287, 4.975382e-03
 962.441,187.487, 4.976525e-03
 963.441,187.687, 4.978500e-03
 964.441,187.887, 4.980007e-03
 965.441,188.087, 4.981739e-03
 966.441,188.287, 4.983508e-03
 967.441,188.487, 4.985064e-03
 968.441,188.687, 4.985285e-03
 969.441,188.887, 4.987520e-03
 970.441,189.087, 4.989552e-03
 971.441,189.287, 4.990755e-03
 972.441,189.487, 4.992600e-03
 973.441,189.687, 4.994577e-03
 974.441,189.887, 4.995994e-03
 975.441,190.087, 4.998607e-03
 976.441,190.287, 4.998815e-03
 977.441,190.487, 5.000648e-03
 978.441,190.687, 5.001686e-03
 979.441,190.887, 5.002673e-03
 980.441,191.087, 5.003149e-03
 981.441,191.287, 5.005386e-03
 982.441,191.487, 5.007064e-03
 983.441,191.687, 5.009085e-03
 984.441,191.887, 5.010405e-03
 985.441,192.087, 5.013066e-03
 986.441,192.287, 5.014440e-03
 987.441,192.487, 5.015117e-03
 988.441,192.687, 5.018085e-03
 989.441,192.886, 5.018621e-03
 990.441,193.086, 5.019995e-03
 991.441,193.287, 5.022358e-03
 992.441,193.487, 5.022690e-03
 993.441,193.687, 5.024969e-03
 994.441,193.887, 5.026780e-03
 995.441,194.087, 5.027215e-03
 996.441,194.287, 5.028350e-03
 997.441,194.487, 5.030438e-03
 998.441,194.687, 5.033538e-03
 999.441,194.887, 5.034728e-03
1000.44,195.087, 5.035126e-03
1001.44,195.287, 5.033627e-03
1002.44,195.487, 5.036802e-03
1003.44,195.687, 5.038625e-03
1004.44,195.887, 5.041493e-03
1005.44,196.087, 5.042309e-03
1006.44,196.287, 5.044471e-03
1007.44,196.487, 5.047047e-03
1008.44,196.687, 5.047930e-03
1009.44,196.887, 5.048407e-03
1010.44,197.087, 5.051352e-03
1011.44,197.287, 5.052615e-03
1012.44,197.487, 5.052095e-03
1013.44,197.687, 5.053022e-03
1014.44,197.887, 5.053876e-03
1015.44,198.087, 5.056264e-03
1016.44,198.287, 5.057964e-03
1017.44,198.487, 5.057821e-03
1018.44,198.687, 5.059282e-03
1019.44,198.887, 5.060039e-03
1020.44,199.087, 5.060530e-03
1021.44,199.287, 5.060237e-03
1022.44,199.487, 5.061606e-03
1023.44,199.687, 5.062032e-03
1024.44,199.887, 5.060975e-03
1025.44,200.086, 5.062922e-03
1026.44,200.287, 5.063218e-03
1027.44,200.487, 5.063889e-03
1028.44,200.687, 5.065368e-03
1029.44,200.887, 5.067153e-03
1030.44,201.087, 5.068259e-03
1031.44,201.287, 5.070109e-03
1032.44,201.487, 5.070662e-03
1033.44,201.687, 5.071831e-03
1034.44,201.887, 5.072671e-03
1035.44,202.087, 5.074979e-03
1036.44,202.287, 5.075222e-03
1037.44,202.487, 5.076238e-03
1038.44,202.687, 5.078956e-03
1039.44,202.887, 5.081239e-03
1040.44,203.087, 5.082099e-03
1041.44,203.287, 5.084176e-03
1042.44,203.487, 5.085723e-03
1043.44,203.687, 5.085897e-03
1044.44,203.887, 5.087673e-03
1045.44,204.087, 5.090356e-03
1046.44,204.287, 5.090293e-03
1047.44,204.487, 5.092368e-03
1048.44,204.687, 5.093773e-03
1049.44,204.887, 5.095433e-03
1050.44,205.087, 5.096726e-03
1051.44,205.287, 5.097068e-03
1052.44,205.487, 5.098054e-03
1053.44,205.687, 5.097899e-03
1054.44,205.887, 5.098502e-03
1055.44,206.087, 5.098139e-03
1056.44,206.287, 5.099485e-03
1057.44,206.487, 5.100198e-03
1058.44,206.687, 5.101198e-03
1059.44,206.887, 5.102742e-03
1060.44,207.087, 5.104458e-03
1061.44,207.287, 5.104581e-03
1062.44,207.487, 5.106464e-03
1063.44,207.687, 5.108001e-03
1064.44,207.887, 5.109284e-03
1065.44,208.087, 5.111602e-03
1066.44,208.287, 5.113135e-03
1067.44,208.487, 5.114484e-03
1068.44,208.687, 5.116958e-03
1069.44,208.887, 5.117959e-03
1070.44,209.087, 5.120523e-03
1071.44,209.287, 5.122217e-03
1072.44,209.487, 5.124500e-03
1073.44,209.687, 5.126638e-03
1074.44,209.887, 5.127582e-03
1075.44,210.087, 5.130446e-03
1076.44,210.287, 5.132472e-03
1077.44,210.487, 5.135334e-03
1078.44,210.687, 5.139163e-03
1079.44,210.887, 5.143844e-03
1080.44,211.087, 5.146337e-03
1081.44,211.287, 5.151166e-03
1082.44,211.487, 5.154341e-03
1083.44,211.687, 5.158163e-03
1084.44,211.887, 5.162260e-03
1085.44,212.087, 5.165508e-03
1086.44,212.287, 5.168346e-03
1087.44,212.487, 5.171612e-03
1088.44,212.687, 5.175538e-03
1089.44,212.888, 5.179025e-03
1090.44,213.087, 5.184361e-03
1091.44,213.287, 5.188470e-03
1092.44,213.487, 5.193142e-03
1093.44,213.687, 5.197399e-03
1094.44,213.887, 5.202081e-03
1095.44,214.087, 5.206663e-03
1096.44,214.287, 5.211583e-03
1097.44,214.487, 5.217088e-03
1098.44,214.687, 5.221372e-03
1099.44,214.887, 5.226851e-03
1100.44,215.087, 5.231774e-03
1101.44,215.288, 5.236396e-03
1102.44,215.487, 5.239675e-03
1103.44,215.687, 5.244357e-03
1104.44,215.887, 5.250396e-03
1105.44,216.087, 5.254456e-03
1106.44,216.287, 5.258762e-03
1107.44,216.487, 5.262956e-03
1108.44,216.687, 5.268014e-03
1109.44,216.887, 5.274616e-03
1110.44,217.088, 5.278421e-03
1111.44,217.287, 5.282376e-03
1112.44,217.487, 5.288144e-03
1113.44,217.687, 5.291346e-03
1114.44,217.887, 5.296139e-03
1115.44,218.087, 5.301863e-03
1116.44,218.287, 5.305358e-03
1117.44,218.487, 5.310138e-03
1118.44,218.687, 5.315268e-03
1119.44,218.887, 5.321048e-03
1120.44,219.087, 5.325317e-03
1121.44,219.287, 5.331076e-03
1122.44,219.487, 5.337512e-03
1123.44,219.687, 5.342229e-03
1124.44,219.887, 5.347908e-03
1125.44,220.088, 5.354586e-03
1126.44,220.287, 5.359587e-03
1127.44,220.487, 5.365263e-03
1128.44,220.687, 5.372759e-03
1129.44,220.887, 5.377040e-03
1130.44,221.087, 5.383717e-03
1131.44,221.287, 5.388376e-03
1132.44,221.487, 5.394005e-03
1133.44,221.687, 5.399483e-03
1134.44,221.887, 5.405202e-03
1135.44,222.087, 5.411285e-03
1136.44,222.288, 5.416590e-03
1137.44,222.487, 5.422648e-03
1138.44,222.687, 5.428777e-03
1139.44,222.887, 5.432387e-03
1140.44,223.087, 5.439728e-03
1141.44,223.287, 5.444279e-03
1142.44,223.487, 5.449810e-03
1143.44,223.687, 5.454367e-03
1144.44,223.887, 5.460271e-03
1145.44,224.087, 5.465470e-03
1146.44,224.287, 5.469989e-03
1147.44,224.487, 5.475644e-03
1148.44,224.687, 5.479722e-03
1149.44,224.887, 5.484004e-03
1150.44,225.087, 5.489038e-03
1151.44,225.287, 5.492439e-03
1152.44,225.487, 5.496358e-03
1153.44,225.688, 5.500335e-03
1154.44,225.887, 5.505845e-03
1155.44,226.088, 5.510403e-03
1156.44,226.287, 5.515430e-03
1157.44,226.487, 5.520245e-03
1158.44,226.687, 5.523922e-03
1159.44,226.887, 5.528909e-03
1160.44,227.087, 5.532466e-03
1161.44,227.287, 5.536252e-03
1162.44,227.487, 5.540312e-03
1163.44,227.687, 5.544732e-03
1164.44,227.887, 5.548227e-03
1165.44,228.087, 5.552379e-03
1166.44,228.287, 5.556715e-03
1167.44,228.487, 5.560330e-03
1168.44,228.687, 5.564379e-03
1169.44,228.887, 5.567485e-03
1170.44,229.088, 5.570662e-03
1171.44,229.288, 5.574871e-03
1172.44,229.487, 5.577654e-03
1173.44,229.687, 5.581410e-03
1174.44,229.887, 5.584360e-03
1175.44,230.087, 5.588113e-03
1176.44,230.287, 5.590480e-03
1177.44,230.487, 5.593434e-03
1178.44,230.687, 5.595913e-03
1179.44,230.887, 5.599713e-03
1180.44,231.087, 5.603253e-03
1181.44,231.287, 5.605997e-03
1182.44,231.488, 5.610003e-03
1183.44,231.688, 5.612262e-03
1184.44,231.888, 5.615593e-03
1185.44,232.087, 5.617853e-03
1186.44,232.288, 5.619481e-03
1187.44,232.488, 5.623044e-03
1188.44,232.688, 5.626582e-03
1189.44,232.887, 5.628450e-03
1190.44,233.087, 5.631065e-03
1191.44,233.287, 5.635041e-03
1192.44,233.487, 5.636801e-03
1193.44,233.687, 5.640399e-03
1194.44,233.887, 5.642247e-03
1195.44,234.087, 5.645546e-03
1196.44,234.287, 5.648030e-03
1197.44,234.488, 5.652100e-03
1198.44,234.687, 5.655070e-03
1199.44,234.887, 5.659687e-03
1200.44,235.087, 5.662014e-03
1201.44,235.287, 5.663914e-03
1202.44,235.487, 5.667637e-03
1203.44,235.687, 5.669704e-03
1204.44,235.888, 5.672081e-03
1205.44,236.087, 5.674266e-03
1206.44,236.287, 5.676912e-03
1207.44,236.488, 5.678272e-03
1208.44,236.688, 5.681732e-03
1209.44,236.887, 5.683032e-03
1210.44,237.087, 5.685091e-03
1211.44,237.287, 5.687987e-03
1212.44,237.487, 5.689816e-03
1213.44,237.687, 5.692279e-03
1214.44,237.887, 5.694005e-03
1215.44,238.087, 5.696761e-03
1216.44,238.287, 5.699770e-03
1217.44,238.487, 5.703116e-03
1218.44,238.687, 5.704027e-03
1219.44,238.887, 5.707815e-03
1220.44,239.087, 5.709645e-03
1221.44,239.288, 5.713491e-03
1222.44,239.488, 5.716683e-03
1223.44,239.688, 5.720297e-03
1224.44,239.888, 5.723300e-03
1225.44,240.088, 5.725145e-03
1226.44,240.288, 5.728153e-03
1227.44,240.487, 5.730505e-03
1228.44,240.687, 5.731672e-03
1229.44,240.888, 5.734530e-03
1230.44,241.088, 5.737563e-03
1231.44,241.288, 5.739704e-03
1232.44,241.487, 5.742703e-03
1233.44,241.687, 5.746595e-03
1234.44,241.887, 5.749644e-03
1235.44,242.087, 5.753114e-03
1236.44,242.287, 5.757789e-03
1237.44,242.487, 5.762614e-03
1238.44,242.687, 5.765954e-03
1239.44,242.887, 5.770969e-03
1240.44,243.087, 5.775027e-03
1241.44,243.287, 5.778658e-03
1242.44,243.487, 5.783291e-03
1243.44,243.687, 5.787139e-03
1244.44,243.887, 5.792041e-03
1245.44,244.087, 5.796066e-03
1246.44,244.287, 5.800253e-03
1247.44,244.487, 5.804147e-03
1248.44,244.688, 5.808747e-03
1249.44,244.888, 5.813325e-03
1250.44,245.088, 5.818865e-03
1251.44,245.288, 5.824853e-03
1252.44,245.487, 5.830327e-03
1253.44,245.687, 5.836698e-03
1254.44,245.887, 5.843076e-03
1255.44,246.087, 5.850707e-03
1256.44,246.287, 5.857714e-03
1257.44,246.487, 5.865647e-03
1258.44,246.687, 5.871508e-03
1259.44,246.887, 5.879211e-03
1260.44,247.087, 5.885863e-03
1261.44,247.287, 5.893403e-03
1262.44,247.487, 5.900869e-03
1263.44,247.687, 5.908955e-03
1264.44,247.887, 5.916309e-03
1265.44,248.087, 5.926318e-03
1266.44,248.287, 5.936597e-03
1267.44,248.487, 5.946059e-03
1268.44,248.687, 5.959120e-03
1269.44,248.887, 5.970318e-03
1270.44,249.087, 5.982322e-03
1271.44,249.287, 5.996382e-03
1272.44,249.487, 6.011240e-03
1273.44,249.687, 6.027355e-03
1274.44,249.887, 6.043946e-03
1275.44,250.087, 6.060305e-03
1276.44,250.287, 6.079282e-03
1277.44,250.487, 6.099306e-03
1278.44,250.687, 6.120009e-03
1279.44,250.887, 6.144734e-03
1280.44,251.087, 6.169146e-03
1281.44,251.288, 6.195586e-03
1282.44,251.487, 6.223141e-03
1283.44,251.687, 6.252695e-03
1284.44,251.888, 6.283347e-03
1285.44,252.087, 6.316614e-03
1286.44,252.287, 6.350280e-03
1287.44,252.487, 6.386595e-03
1288.44,252.687, 6.425326e-03
1289.44,252.887, 6.467455e-03
1290.44,253.087, 6.512593e-03
1291.44,253.287, 6.559796e-03
1292.44,253.487, 6.608740e-03
1293.44,253.687, 6.659439e-03
1294.44,253.887, 6.714302e-03
1295.44,254.087, 6.781791e-03
1296.44,254.287, 6.852085e-03
1297.44,254.487, 6.926265e-03
1298.44,254.687, 7.005123e-03
1299.44,254.887, 7.092620e-03
1300.44,255.087, 7.181420e-03
1301.44,255.287, 7.277719e-03
1302.44,255.487, 7.397060e-03
1303.44,255.687, 7.519031e-03
1304.44,255.887, 7.653239e-03
1305.44,256.087, 7.793383e-03
1306.44,256.287, 7.962999e-03
1307.44,256.487, 8.139449e-03
1308.44,256.687, 8.333865e-03
1309.44,256.887, 8.557575e-03
1310.44,257.087, 8.795332e-03
1311.44,257.287, 9.072948e-03
1312.44,257.487, 9.385326e-03
1313.44,257.687, 9.732242e-03
1314.44,257.887, 1.013401e-02
1315.44,258.087, 1.055742e-02
1316.44,258.287, 1.102617e-02
1317.44,258.487, 1.154377e-02
1318.44,258.687, 1.209615e-02
1319.44,258.887, 1.266534e-02
1320.44,259.087, 1.326813e-02
1321.44,259.287, 1.391262e-02
1322.44,259.487, 1.459705e-02
1323.44,259.687, 1.520909e-02
1324.44,259.887, 1.575870e-02
1325.44,260.087, 1.624038e-02
1326.44,260.287, 1.668482e-02
1327.44,260.487, 1.706142e-02
1328.44,260.687, 1.739515e-02
1329.44,260.888, 1.771463e-02
1330.44,261.087, 1.797154e-02
1331.44,261.287, 1.810382e-02
1332.44,261.487, 1.822474e-02
1333.44,261.687, 1.830528e-02
1334.44,261.887, 1.829981e-02
1335.44,262.087, 1.826198e-02
1336.44,262.287, 1.819325e-02
1337.44,262.487, 1.809496e-02
1338.44,262.687, 1.792810e-02
1339.44,262.887, 1.768284e-02
1340.44,263.087, 1.743219e-02
1341.44,263.287, 1.721115e-02
1342.44,263.487, 1.693559e-02
1343.44,263.687, 1.669677e-02
1344.44,263.887, 1.645059e-02
1345.44,264.087, 1.614335e-02
1346.44,264.287, 1.583347e-02
1347.44,264.487, 1.549250e-02
1348.44,264.687, 1.515316e-02
1349.44,264.887, 1.476234e-02
1350.44,265.087, 1.437682e-02
1351.44,265.287, 1.397115e-02
1352.44,265.487, 1.357585e-02
1353.44,265.687, 1.314904e-02
1354.44,265.887, 1.269307e-02
1355.44,266.087, 1.217239e-02
1356.44,266.287, 1.165162e-02
1357.44,266.487, 1.114602e-02
1358.44,266.687, 1.068716e-02
1359.44,266.887, 1.020881e-02
1359.94,266.986, 9.976274e-03