File: Other original data/DIL/ExpDat_Sample-HNXSQ25.csv
#EXPORTTYPE:       ,DATA ALL
#FILE:             ,样品1.ngb-dla
#FORMAT:           ,NETZSCH5
#FTYPE:            ,ANSI
#IDENTITY:         ,样品1
#DECIMAL:          ,POINT
#SEPARATOR:        ,COMMA
#MTYPE:            ,DIL
#INSTRUMENT:       ,NETZSCH DIL 402SE
#PROJECT:          ,
#DATE/TIME:        ,2024/7/11 9:41:36 (UTC+8)
#CORR. FILE:       ,Al2O3-5-2.ngb-cla
#TEMPCAL:          ,TCALZERO.TMX
#LABORATORY:       ,
#OPERATOR:         ,
#REMARK:           ,
#SAMPLE:           ,样品1
#SAMPLE LENGTH /mm:,11.921
#MATERIAL:         ,
#MEASMODE:         ,Standard Expansion
#PROTECTIVE MFC:   ,NITROGEN,250.0 ml/min
#M.RANGE /μm:      ,20000
#CORR. CODE:       ,080
#RANGE:            ,25°C/5.0(K/min)/1360°C
#SEGMENT:          ,S1/1
#SEG. 1:           ,25°C/5.0(K/min)/1360°C

##Temp./°C,Time/min,dL/Lo
  25.11100,  0.00000, 3.785151e-05
  26.11100,  1.54140, 3.999081e-05
  27.11100,  1.97755, 5.241130e-05
  28.11100,  2.31824, 6.094385e-05
  29.11100,  2.61245, 6.954651e-05
  30.11100,  2.87342, 7.873847e-05
  31.11100,  3.10881, 8.478150e-05
  32.11100,  3.32638, 9.342757e-05
  33.11100,  3.52992, 1.002852e-04
  34.11100,  3.72101, 9.678600e-05
  35.11100,  3.90393, 1.096710e-04
  36.11100,  4.08034, 1.059420e-04
  37.11100,  4.25125, 1.224444e-04
  38.11100,  4.41697, 1.354998e-04
  39.11100,  4.57871, 1.421142e-04
  40.11100,  4.73743, 1.496333e-04
  41.11100,  4.89335, 1.564816e-04
  42.11100,  5.04551, 1.647556e-04
  43.11100,  5.19499, 1.677164e-04
  44.11100,  5.34260, 1.719725e-04
  45.11100,  5.48889, 1.755883e-04
  46.11100,  5.63398, 1.813690e-04
  47.11100,  5.77768, 1.866865e-04
  48.11100,  5.92021, 1.882951e-04
  49.11100,  6.06152, 1.957243e-04
  50.11100,  6.20217, 2.025399e-04
  51.11100,  6.34236, 2.075163e-04
  52.11100,  6.48252, 2.120739e-04
  53.11100,  6.62267, 2.173449e-04
  54.11100,  6.76293, 2.215161e-04
  55.11100,  6.90319, 2.244135e-04
  56.11100,  7.04354, 2.278601e-04
  57.11100,  7.18386, 2.340708e-04
  58.11100,  7.32540, 2.383113e-04
  59.11100,  7.46744, 2.419487e-04
  60.11100,  7.61031, 2.460511e-04
  61.11100,  7.75348, 2.490766e-04
  62.11100,  7.89773, 2.535867e-04
  63.11100,  8.04288, 2.552301e-04
  64.11100,  8.18955, 2.598146e-04
  65.11100,  8.33766, 2.627833e-04
  66.11100,  8.48795, 2.651808e-04
  67.11100,  8.63993, 2.678505e-04
  68.11100,  8.79367, 2.703465e-04
  69.11100,  8.94960, 2.725625e-04
  70.11100,  9.10679, 2.752260e-04
  71.11100,  9.26637, 2.774607e-04
  72.11100,  9.42799, 2.778877e-04
  73.11100,  9.59273, 2.809098e-04
  74.11100,  9.75939, 2.835051e-04
  75.11100,  9.92895, 2.864539e-04
  76.11100, 10.10110, 2.889604e-04
  77.11100, 10.27706, 2.917123e-04
  78.11100, 10.45572, 2.928126e-04
  79.11100, 10.63670, 2.935636e-04
  80.11100, 10.81996, 2.969859e-04
  81.11100, 11.00559, 2.966898e-04
  82.11100, 11.19387, 2.981456e-04
  83.11100, 11.38592, 3.007405e-04
  84.11100, 11.58137, 3.027825e-04
  85.11100, 11.77986, 3.029816e-04
  86.11100, 11.98024, 3.056348e-04
  87.11100, 12.18320, 3.070199e-04
  88.11100, 12.38820, 3.088908e-04
  89.11100, 12.59511, 3.112253e-04
  90.11100, 12.80405, 3.125407e-04
  91.11100, 13.01465, 3.175985e-04
  92.11100, 13.22646, 3.178361e-04
  93.11100, 13.43995, 3.222285e-04
  94.11100, 13.65514, 3.236415e-04
  95.11100, 13.87022, 3.259871e-04
  96.11100, 14.08508, 3.283750e-04
  97.11100, 14.30059, 3.317946e-04
  98.11100, 14.51718, 3.354665e-04
  99.11100, 14.73317, 3.395983e-04
 100.111, 14.94893, 3.425592e-04
 101.111, 15.16431, 3.457912e-04
 102.111, 15.37951, 3.504117e-04
 103.111, 15.59355, 3.564243e-04
 104.111, 15.80613, 3.597620e-04
 105.111, 16.01755, 3.654644e-04
 106.111, 16.22826, 3.700706e-04
 107.111, 16.43817, 3.748560e-04
 108.111, 16.64739, 3.790527e-04
 109.111, 16.85592, 3.851948e-04
 110.111, 17.06294, 3.908334e-04
 111.111, 17.26927, 4.028971e-04
 112.111, 17.47473, 4.068336e-04
 113.111, 17.67890, 4.139524e-04
 114.111, 17.88218, 4.193907e-04
 115.111, 18.08491, 4.261666e-04
 116.111, 18.28616, 4.312030e-04
 117.111, 18.48662, 4.373017e-04
 118.111, 18.68643, 4.435149e-04
 119.111, 18.88649, 4.504258e-04
 120.111, 19.08638, 4.561064e-04
 121.111, 19.28485, 4.619007e-04
 122.111, 19.48220, 4.684692e-04
 123.111, 19.67926, 4.751355e-04
 124.111, 19.87644, 4.808897e-04
 125.111, 20.07229, 4.874821e-04
 126.111, 20.26770, 4.946125e-04
 127.111, 20.46371, 5.007196e-04
 128.111, 20.65950, 5.054228e-04
 129.111, 20.85486, 5.128920e-04
 130.111, 21.04961, 5.182028e-04
 131.111, 21.24497, 5.240780e-04
 132.111, 21.44098, 5.305406e-04
 133.111, 21.63681, 5.369931e-04
 134.111, 21.83183, 5.429786e-04
 135.111, 22.02738, 5.488131e-04
 136.111, 22.22324, 5.548066e-04
 137.111, 22.41948, 5.609700e-04
 138.111, 22.61585, 5.671375e-04
 139.111, 22.81192, 5.737809e-04
 140.111, 23.00873, 5.810247e-04
 141.111, 23.20551, 5.864406e-04
 142.111, 23.40260, 5.930238e-04
 143.111, 23.60031, 6.019019e-04
 144.111, 23.79778, 6.052013e-04
 145.111, 23.99586, 6.139447e-04
 146.111, 24.19431, 6.180906e-04
 147.111, 24.39298, 6.232968e-04
 148.111, 24.59194, 6.299345e-04
 149.111, 24.79126, 6.364155e-04
 150.111, 24.99148, 6.430797e-04
 151.111, 25.19114, 6.502551e-04
 152.111, 25.39047, 6.581583e-04
 153.111, 25.59028, 6.629418e-04
 154.111, 25.79038, 6.696443e-04
 155.111, 25.99037, 6.744339e-04
 156.111, 26.19098, 6.817683e-04
 157.111, 26.39143, 6.891107e-04
 158.111, 26.59137, 6.944395e-04
 159.111, 26.79184, 7.003115e-04
 160.111, 26.99261, 7.066974e-04
 161.111, 27.19349, 7.152042e-04
 162.111, 27.39450, 7.199289e-04
 163.111, 27.59503, 7.270215e-04
 164.111, 27.79600, 7.338798e-04
 165.111, 27.99751, 7.399369e-04
 166.111, 28.19870, 7.460683e-04
 167.111, 28.39964, 7.527356e-04
 168.111, 28.59988, 7.602772e-04
 169.111, 28.80053, 7.660435e-04
 170.111, 29.00134, 7.715081e-04
 171.111, 29.20174, 7.781758e-04
 172.111, 29.40261, 7.845986e-04
 173.111, 29.60382, 7.904251e-04
 174.111, 29.80469, 7.972772e-04
 175.111, 30.00527, 8.026612e-04
 176.111, 30.20519, 8.098846e-04
 177.111, 30.40519, 8.142530e-04
 178.111, 30.60554, 8.221371e-04
 179.111, 30.80541, 8.272296e-04
 180.111, 31.00491, 8.354984e-04
 181.111, 31.20431, 8.408377e-04
 182.111, 31.40367, 8.476402e-04
 183.111, 31.60285, 8.562793e-04
 184.111, 31.80223, 8.621475e-04
 185.111, 32.00156, 8.684039e-04
 186.111, 32.20101, 8.749523e-04
 187.111, 32.40033, 8.835813e-04
 188.111, 32.59902, 8.891809e-04
 189.111, 32.79828, 8.959616e-04
 190.111, 32.99766, 9.025927e-04
 191.111, 33.19720, 9.103707e-04
 192.111, 33.39652, 9.159430e-04
 193.111, 33.59624, 9.226719e-04
 194.111, 33.79639, 9.313525e-04
 195.111, 33.99590, 9.392350e-04
 196.111, 34.19567, 9.449085e-04
 197.111, 34.39580, 9.522050e-04
 198.111, 34.59618, 9.593949e-04
 199.111, 34.79615, 9.662040e-04
 200.111, 34.99562, 9.717898e-04
 201.111, 35.19598, 9.801042e-04
 202.111, 35.39645, 9.867736e-04
 203.111, 35.59607, 9.934954e-04
 204.111, 35.79576, 1.000537e-03
 205.111, 35.99553, 1.006930e-03
 206.111, 36.19566, 1.014650e-03
 207.111, 36.39606, 1.023218e-03
 208.111, 36.59695, 1.030905e-03
 209.111, 36.79775, 1.035818e-03
 210.111, 36.99781, 1.043890e-03
 211.111, 37.19806, 1.051872e-03
 212.111, 37.39814, 1.058311e-03
 213.111, 37.59729, 1.064862e-03
 214.111, 37.79716, 1.071434e-03
 215.111, 37.99779, 1.078400e-03
 216.111, 38.19763, 1.085716e-03
 217.111, 38.39761, 1.092111e-03
 218.111, 38.59757, 1.099506e-03
 219.111, 38.79736, 1.106137e-03
 220.111, 38.99738, 1.113434e-03
 221.111, 39.19788, 1.120631e-03
 222.111, 39.39782, 1.126206e-03
 223.111, 39.59770, 1.135356e-03
 224.111, 39.79758, 1.140104e-03
 225.111, 39.99776, 1.146863e-03
 226.111, 40.19813, 1.153415e-03
 227.111, 40.39800, 1.160741e-03
 228.111, 40.59792, 1.169225e-03
 229.111, 40.79827, 1.173217e-03
 230.111, 40.99901, 1.180537e-03
 231.111, 41.19894, 1.188623e-03
 232.111, 41.39788, 1.194880e-03
 233.111, 41.59705, 1.200903e-03
 234.111, 41.79730, 1.208159e-03
 235.111, 41.99792, 1.214192e-03
 236.111, 42.19759, 1.220019e-03
 237.111, 42.39752, 1.226055e-03
 238.111, 42.59771, 1.232494e-03
 239.111, 42.79747, 1.237868e-03
 240.111, 42.99785, 1.244384e-03
 241.111, 43.19837, 1.249779e-03
 242.111, 43.39835, 1.256310e-03
 243.111, 43.59815, 1.261213e-03
 244.111, 43.79647, 1.269207e-03
 245.111, 43.99321, 1.274670e-03
 246.111, 44.19209, 1.280470e-03
 247.111, 44.39264, 1.288027e-03
 248.111, 44.59318, 1.294522e-03
 249.111, 44.79355, 1.300550e-03
 250.111, 44.99385, 1.305196e-03
 251.111, 45.19462, 1.312059e-03
 252.111, 45.39503, 1.318792e-03
 253.111, 45.59531, 1.322576e-03
 254.111, 45.79570, 1.330694e-03
 255.111, 45.99655, 1.336638e-03
 256.111, 46.19739, 1.341771e-03
 257.111, 46.39781, 1.344851e-03
 258.111, 46.59829, 1.349980e-03
 259.111, 46.79859, 1.352617e-03
 260.111, 46.99899, 1.358665e-03
 261.111, 47.19986, 1.366078e-03
 262.111, 47.39994, 1.371117e-03
 263.111, 47.59986, 1.376115e-03
 264.111, 47.80014, 1.382410e-03
 265.111, 47.99979, 1.386457e-03
 266.111, 48.19947, 1.392666e-03
 267.111, 48.39927, 1.398694e-03
 268.111, 48.59949, 1.404596e-03
 269.111, 48.80019, 1.411517e-03
 270.111, 49.00094, 1.416416e-03
 271.111, 49.20029, 1.422950e-03
 272.111, 49.39893, 1.428675e-03
 273.111, 49.59898, 1.434323e-03
 274.111, 49.79950, 1.439365e-03
 275.111, 50.00036, 1.445067e-03
 276.111, 50.20068, 1.451144e-03
 277.111, 50.40114, 1.456949e-03
 278.111, 50.60232, 1.462383e-03
 279.111, 50.80242, 1.467830e-03
 280.111, 51.00112, 1.472940e-03
 281.111, 51.20030, 1.480139e-03
 282.111, 51.40100, 1.484507e-03
 283.111, 51.60256, 1.490944e-03
 284.111, 51.80268, 1.494996e-03
 285.111, 52.00183, 1.502033e-03
 286.111, 52.20175, 1.506222e-03
 287.111, 52.40119, 1.510999e-03
 288.111, 52.60032, 1.517092e-03
 289.111, 52.80157, 1.521796e-03
 290.111, 53.00230, 1.527587e-03
 291.111, 53.20166, 1.532376e-03
 292.111, 53.40142, 1.538368e-03
 293.111, 53.60139, 1.544969e-03
 294.111, 53.80150, 1.549362e-03
 295.111, 54.00139, 1.553441e-03
 296.111, 54.20113, 1.560201e-03
 297.111, 54.40146, 1.565751e-03
 298.111, 54.60180, 1.570283e-03
 299.111, 54.80147, 1.575535e-03
 300.111, 55.00132, 1.579541e-03
 301.111, 55.20130, 1.585487e-03
 302.111, 55.40110, 1.590954e-03
 303.111, 55.60139, 1.596042e-03
 304.111, 55.80177, 1.600514e-03
 305.111, 56.00122, 1.605879e-03
 306.111, 56.20113, 1.611427e-03
 307.111, 56.40153, 1.617711e-03
 308.111, 56.60140, 1.622075e-03
 309.111, 56.80152, 1.627114e-03
 310.111, 57.00152, 1.633447e-03
 311.111, 57.20136, 1.640237e-03
 312.111, 57.40153, 1.645036e-03
 313.111, 57.60149, 1.649828e-03
 314.111, 57.80130, 1.655073e-03
 315.111, 58.00148, 1.660493e-03
 316.111, 58.20161, 1.665523e-03
 317.111, 58.40167, 1.671325e-03
 318.111, 58.60186, 1.675662e-03
 319.111, 58.80258, 1.681923e-03
 320.111, 59.00280, 1.687753e-03
 321.111, 59.20242, 1.691322e-03
 322.111, 59.40242, 1.697658e-03
 323.111, 59.60262, 1.702470e-03
 324.111, 59.80289, 1.707299e-03
 325.111, 60.00294, 1.712879e-03
 326.111, 60.20273, 1.716556e-03
 327.111, 60.40222, 1.720404e-03
 328.111, 60.60206, 1.727478e-03
 329.111, 60.80175, 1.730793e-03
 330.111, 61.00174, 1.737374e-03
 331.111, 61.20234, 1.742646e-03
 332.111, 61.40249, 1.747294e-03
 333.111, 61.60254, 1.753607e-03
 334.111, 61.80271, 1.759039e-03
 335.111, 62.00291, 1.763351e-03
 336.111, 62.20307, 1.769531e-03
 337.111, 62.40297, 1.774604e-03
 338.111, 62.60312, 1.780745e-03
 339.111, 62.80333, 1.784887e-03
 340.111, 63.00386, 1.791000e-03
 341.111, 63.20418, 1.796047e-03
 342.111, 63.40436, 1.800655e-03
 343.111, 63.60451, 1.805741e-03
 344.111, 63.80448, 1.810169e-03
 345.111, 64.00468, 1.816880e-03
 346.111, 64.20473, 1.820998e-03
 347.111, 64.40503, 1.825692e-03
 348.111, 64.60521, 1.829875e-03
 349.111, 64.80481, 1.836076e-03
 350.111, 65.00487, 1.840211e-03
 351.111, 65.20497, 1.845750e-03
 352.111, 65.40485, 1.849562e-03
 353.111, 65.60498, 1.855405e-03
 354.111, 65.80518, 1.861136e-03
 355.111, 66.00533, 1.864912e-03
 356.111, 66.20544, 1.870918e-03
 357.111, 66.40510, 1.874948e-03
 358.111, 66.60500, 1.880631e-03
 359.111, 66.80535, 1.885032e-03
 360.111, 67.00549, 1.891293e-03
 361.111, 67.20540, 1.897372e-03
 362.111, 67.40549, 1.902366e-03
 363.111, 67.60564, 1.907516e-03
 364.111, 67.80565, 1.913429e-03
 365.111, 68.00571, 1.918545e-03
 366.111, 68.20617, 1.922861e-03
 367.111, 68.40635, 1.928329e-03
 368.111, 68.60636, 1.933412e-03
 369.111, 68.80682, 1.940892e-03
 370.111, 69.00673, 1.944739e-03
 371.111, 69.20697, 1.950288e-03
 372.111, 69.40726, 1.954697e-03
 373.111, 69.60717, 1.960007e-03
 374.111, 69.80730, 1.963605e-03
 375.111, 70.00773, 1.969264e-03
 376.111, 70.20768, 1.976576e-03
 377.111, 70.40713, 1.980649e-03
 378.111, 70.60734, 1.987697e-03
 379.111, 70.80755, 1.992877e-03
 380.111, 71.00757, 1.999220e-03
 381.111, 71.20750, 2.005959e-03
 382.111, 71.40750, 2.010754e-03
 383.111, 71.60781, 2.013172e-03
 384.111, 71.80792, 2.020319e-03
 385.111, 72.00790, 2.026922e-03
 386.111, 72.20795, 2.031054e-03
 387.111, 72.40811, 2.036933e-03
 388.111, 72.60819, 2.041381e-03
 389.111, 72.80800, 2.047605e-03
 390.111, 73.00810, 2.052512e-03
 391.111, 73.20824, 2.057731e-03
 392.111, 73.40823, 2.063898e-03
 393.111, 73.60864, 2.068658e-03
 394.111, 73.80858, 2.074696e-03
 395.111, 74.00865, 2.080020e-03
 396.111, 74.20899, 2.084413e-03
 397.111, 74.40917, 2.091106e-03
 398.111, 74.60898, 2.096482e-03
 399.111, 74.80884, 2.100265e-03
 400.111, 75.00892, 2.107204e-03
 401.111, 75.20910, 2.114904e-03
 402.111, 75.40898, 2.119422e-03
 403.111, 75.60888, 2.125910e-03
 404.111, 75.80928, 2.129321e-03
 405.111, 76.00961, 2.137946e-03
 406.111, 76.20992, 2.141567e-03
 407.111, 76.40997, 2.146924e-03
 408.111, 76.61017, 2.153255e-03
 409.111, 76.81043, 2.157222e-03
 410.111, 77.01045, 2.162871e-03
 411.111, 77.21020, 2.169314e-03
 412.111, 77.40987, 2.172914e-03
 413.111, 77.60977, 2.179594e-03
 414.111, 77.80959, 2.188249e-03
 415.111, 78.00961, 2.191129e-03
 416.111, 78.21001, 2.196086e-03
 417.111, 78.41030, 2.203708e-03
 418.111, 78.61012, 2.209542e-03
 419.111, 78.80992, 2.214633e-03
 420.111, 79.01006, 2.221400e-03
 421.111, 79.21033, 2.229017e-03
 422.111, 79.41052, 2.230549e-03
 423.111, 79.61056, 2.237232e-03
 424.111, 79.81094, 2.246914e-03
 425.111, 80.01098, 2.254177e-03
 426.111, 80.21110, 2.256710e-03
 427.111, 80.41126, 2.263259e-03
 428.111, 80.61120, 2.269551e-03
 429.111, 80.81130, 2.277498e-03
 430.111, 81.01165, 2.281645e-03
 431.111, 81.21188, 2.288727e-03
 432.111, 81.41191, 2.295908e-03
 433.111, 81.61179, 2.301308e-03
 434.111, 81.81187, 2.307954e-03
 435.111, 82.01174, 2.312485e-03
 436.111, 82.21174, 2.320099e-03
 437.111, 82.41199, 2.324506e-03
 438.111, 82.61201, 2.332301e-03
 439.111, 82.81198, 2.337956e-03
 440.111, 83.01227, 2.347153e-03
 441.111, 83.21221, 2.350573e-03
 442.111, 83.41254, 2.358248e-03
 443.111, 83.61277, 2.362114e-03
 444.111, 83.81235, 2.372177e-03
 445.111, 84.01249, 2.371461e-03
 446.111, 84.21289, 2.380465e-03
 447.111, 84.41288, 2.385873e-03
 448.111, 84.61260, 2.393649e-03
 449.111, 84.81276, 2.398891e-03
 450.111, 85.01267, 2.404403e-03
 451.111, 85.21256, 2.412369e-03
 452.111, 85.41261, 2.420240e-03
 453.111, 85.61242, 2.428506e-03
 454.111, 85.81308, 2.433533e-03
 455.111, 86.01333, 2.438648e-03
 456.111, 86.21319, 2.440681e-03
 457.111, 86.41336, 2.454484e-03
 458.111, 86.61315, 2.460046e-03
 459.111, 86.81329, 2.463478e-03
 460.111, 87.01329, 2.470124e-03
 461.111, 87.21325, 2.478610e-03
 462.111, 87.41337, 2.483267e-03
 463.111, 87.61363, 2.493403e-03
 464.111, 87.81373, 2.497577e-03
 465.111, 88.01373, 2.504618e-03
 466.111, 88.21382, 2.516030e-03
 467.111, 88.41367, 2.519268e-03
 468.111, 88.61351, 2.528445e-03
 469.111, 88.81388, 2.527009e-03
 470.111, 89.01427, 2.535553e-03
 471.111, 89.21424, 2.538531e-03
 472.111, 89.41418, 2.543421e-03
 473.111, 89.61451, 2.557526e-03
 474.111, 89.81445, 2.565244e-03
 475.111, 90.01467, 2.571829e-03
 476.111, 90.21492, 2.582167e-03
 477.111, 90.41495, 2.587808e-03
 478.111, 90.61513, 2.597516e-03
 479.111, 90.81535, 2.604940e-03
 480.111, 91.01530, 2.606377e-03
 481.111, 91.21509, 2.614584e-03
 482.111, 91.41520, 2.623651e-03
 483.111, 91.61540, 2.628015e-03
 484.111, 91.81548, 2.635542e-03
 485.111, 92.01523, 2.648811e-03
 486.111, 92.21547, 2.654239e-03
 487.111, 92.41571, 2.659173e-03
 488.111, 92.61570, 2.665952e-03
 489.111, 92.81584, 2.672331e-03
 490.111, 93.01597, 2.682297e-03
 491.111, 93.21618, 2.693838e-03
 492.111, 93.41613, 2.695516e-03
 493.111, 93.61580, 2.703408e-03
 494.111, 93.81600, 2.709767e-03
 495.111, 94.01632, 2.717080e-03
 496.111, 94.21634, 2.728153e-03
 497.111, 94.41621, 2.737801e-03
 498.111, 94.61635, 2.747182e-03
 499.111, 94.81648, 2.754162e-03
 500.111, 95.01652, 2.761322e-03
 501.111, 95.21678, 2.772503e-03
 502.111, 95.41671, 2.775293e-03
 503.111, 95.61663, 2.784797e-03
 504.111, 95.81661, 2.791245e-03
 505.111, 96.01652, 2.801416e-03
 506.111, 96.21653, 2.809989e-03
 507.111, 96.41637, 2.817834e-03
 508.111, 96.61598, 2.827986e-03
 509.111, 96.81631, 2.833880e-03
 510.111, 97.01656, 2.845258e-03
 511.111, 97.21654, 2.851219e-03
 512.111, 97.41677, 2.863177e-03
 513.111, 97.61689, 2.871835e-03
 514.111, 97.81684, 2.878495e-03
 515.111, 98.01715, 2.885468e-03
 516.111, 98.21727, 2.894218e-03
 517.111, 98.41685, 2.902967e-03
 518.111, 98.61685, 2.916011e-03
 519.111, 98.81694, 2.923096e-03
 520.111, 99.01749, 2.934497e-03
 521.111, 99.21733, 2.942539e-03
 522.111, 99.41707, 2.950485e-03
 523.111, 99.61696, 2.960467e-03
 524.111, 99.81662, 2.971286e-03
 525.111,100.017, 2.978554e-03
 526.111,100.217, 2.987195e-03
 527.111,100.416, 2.998405e-03
 528.111,100.617, 3.008477e-03
 529.111,100.817, 3.018703e-03
 530.111,101.017, 3.030295e-03
 531.111,101.217, 3.038413e-03
 532.111,101.417, 3.049717e-03
 533.111,101.617, 3.061595e-03
 534.111,101.817, 3.071989e-03
 535.111,102.017, 3.083336e-03
 536.111,102.217, 3.091206e-03
 537.111,102.417, 3.104311e-03
 538.111,102.617, 3.116927e-03
 539.111,102.817, 3.126249e-03
 540.111,103.017, 3.136580e-03
 541.111,103.217, 3.148502e-03
 542.111,103.417, 3.163360e-03
 543.111,103.617, 3.174483e-03
 544.111,103.817, 3.186023e-03
 545.111,104.017, 3.198837e-03
 546.111,104.217, 3.209881e-03
 547.111,104.417, 3.221976e-03
 548.111,104.617, 3.235978e-03
 549.111,104.817, 3.247300e-03
 550.111,105.017, 3.261410e-03
 551.111,105.217, 3.274182e-03
 552.111,105.417, 3.285796e-03
 553.111,105.617, 3.301904e-03
 554.111,105.817, 3.314708e-03
 555.111,106.017, 3.329072e-03
 556.111,106.217, 3.344157e-03
 557.111,106.417, 3.360200e-03
 558.111,106.617, 3.373833e-03
 559.111,106.817, 3.390222e-03
 560.111,107.018, 3.403892e-03
 561.111,107.218, 3.422916e-03
 562.111,107.417, 3.437505e-03
 563.111,107.617, 3.456622e-03
 564.111,107.817, 3.474291e-03
 565.111,108.018, 3.494699e-03
 566.111,108.218, 3.515408e-03
 567.111,108.417, 3.538383e-03
 568.111,108.617, 3.559631e-03
 569.111,108.818, 3.585120e-03
 570.111,109.017, 3.607342e-03
 571.111,109.217, 3.628125e-03
 572.111,109.417, 3.647538e-03
 573.111,109.617, 3.666430e-03
 574.111,109.817, 3.685348e-03
 575.111,110.017, 3.700974e-03
 576.111,110.218, 3.718266e-03
 577.111,110.417, 3.732908e-03
 578.111,110.617, 3.746389e-03
 579.111,110.817, 3.757048e-03
 580.111,111.017, 3.769798e-03
 581.111,111.217, 3.778798e-03
 582.111,111.417, 3.790428e-03
 583.111,111.617, 3.799512e-03
 584.111,111.817, 3.808624e-03
 585.111,112.018, 3.817018e-03
 586.111,112.217, 3.826020e-03
 587.111,112.417, 3.833812e-03
 588.111,112.617, 3.842358e-03
 589.111,112.818, 3.847764e-03
 590.111,113.018, 3.856100e-03
 591.111,113.218, 3.861801e-03
 592.111,113.418, 3.868755e-03
 593.111,113.618, 3.871395e-03
 594.111,113.818, 3.876045e-03
 595.111,114.017, 3.884033e-03
 596.111,114.217, 3.888394e-03
 597.111,114.417, 3.893688e-03
 598.111,114.617, 3.896254e-03
 599.111,114.817, 3.900079e-03
 600.111,115.017, 3.903448e-03
 601.111,115.218, 3.909850e-03
 602.111,115.417, 3.912980e-03
 603.111,115.617, 3.916771e-03
 604.111,115.817, 3.920438e-03
 605.111,116.017, 3.922939e-03
 606.111,116.217, 3.925251e-03
 607.111,116.418, 3.931527e-03
 608.111,116.617, 3.934042e-03
 609.111,116.817, 3.936686e-03
 610.111,117.018, 3.939058e-03
 611.111,117.217, 3.941793e-03
 612.111,117.418, 3.946948e-03
 613.111,117.618, 3.945682e-03
 614.111,117.818, 3.951537e-03
 615.111,118.018, 3.953636e-03
 616.111,118.217, 3.957025e-03
 617.111,118.418, 3.960046e-03
 618.111,118.618, 3.964581e-03
 619.111,118.817, 3.964481e-03
 620.111,119.017, 3.969026e-03
 621.111,119.218, 3.969576e-03
 622.111,119.418, 3.972326e-03
 623.111,119.618, 3.978124e-03
 624.111,119.818, 3.979525e-03
 625.111,120.018, 3.984669e-03
 626.111,120.218, 3.988595e-03
 627.111,120.418, 3.988037e-03
 628.111,120.618, 3.991135e-03
 629.111,120.818, 3.994582e-03
 630.111,121.018, 3.994751e-03
 631.111,121.218, 4.000092e-03
 632.111,121.418, 4.001005e-03
 633.111,121.618, 4.003879e-03
 634.111,121.818, 4.006125e-03
 635.111,122.018, 4.007375e-03
 636.111,122.218, 4.009811e-03
 637.111,122.418, 4.013936e-03
 638.111,122.618, 4.014605e-03
 639.111,122.818, 4.019302e-03
 640.111,123.018, 4.020131e-03
 641.111,123.218, 4.024137e-03
 642.111,123.418, 4.026508e-03
 643.111,123.618, 4.029077e-03
 644.111,123.818, 4.028392e-03
 645.111,124.018, 4.031397e-03
 646.111,124.218, 4.033452e-03
 647.111,124.418, 4.035987e-03
 648.111,124.618, 4.035992e-03
 649.111,124.818, 4.038048e-03
 650.111,125.018, 4.041382e-03
 651.111,125.218, 4.044004e-03
 652.111,125.419, 4.044732e-03
 653.111,125.618, 4.046375e-03
 654.111,125.818, 4.051746e-03
 655.111,126.019, 4.052730e-03
 656.111,126.219, 4.055181e-03
 657.111,126.418, 4.053902e-03
 658.111,126.618, 4.055052e-03
 659.111,126.818, 4.055327e-03
 660.111,127.018, 4.059693e-03
 661.111,127.218, 4.060072e-03
 662.111,127.418, 4.062887e-03
 663.111,127.618, 4.062246e-03
 664.111,127.818, 4.065861e-03
 665.111,128.018, 4.067787e-03
 666.111,128.218, 4.069491e-03
 667.111,128.418, 4.070840e-03
 668.111,128.618, 4.070398e-03
 669.111,128.818, 4.075579e-03
 670.111,129.018, 4.073468e-03
 671.111,129.218, 4.079959e-03
 672.111,129.418, 4.078239e-03
 673.111,129.618, 4.080984e-03
 674.111,129.819, 4.080999e-03
 675.111,130.019, 4.086610e-03
 676.111,130.219, 4.085560e-03
 677.111,130.419, 4.087855e-03
 678.111,130.619, 4.091046e-03
 679.111,130.819, 4.089342e-03
 680.111,131.018, 4.095474e-03
 681.111,131.218, 4.097718e-03
 682.111,131.419, 4.100081e-03
 683.111,131.619, 4.097490e-03
 684.111,131.818, 4.099233e-03
 685.111,132.018, 4.100395e-03
 686.111,132.219, 4.101065e-03
 687.111,132.419, 4.100338e-03
 688.111,132.619, 4.107751e-03
 689.111,132.819, 4.113103e-03
 690.111,133.018, 4.120232e-03
 691.111,133.218, 4.119555e-03
 692.111,133.419, 4.124115e-03
 693.111,133.619, 4.124662e-03
 694.111,133.819, 4.130671e-03
 695.111,134.019, 4.133095e-03
 696.111,134.219, 4.136398e-03
 697.111,134.419, 4.133637e-03
 698.111,134.619, 4.139514e-03
 699.111,134.819, 4.140342e-03
 700.111,135.018, 4.143287e-03
 701.111,135.218, 4.147052e-03
 702.111,135.419, 4.152079e-03
 703.111,135.619, 4.152997e-03
 704.111,135.819, 4.156596e-03
 705.111,136.019, 4.158685e-03
 706.111,136.219, 4.160054e-03
 707.111,136.419, 4.165321e-03
 708.111,136.619, 4.164642e-03
 709.111,136.819, 4.170770e-03
 710.111,137.019, 4.174145e-03
 711.111,137.219, 4.177050e-03
 712.111,137.419, 4.177777e-03
 713.111,137.619, 4.181008e-03
 714.111,137.819, 4.183829e-03
 715.111,138.019, 4.188017e-03
 716.111,138.219, 4.190397e-03
 717.111,138.419, 4.192881e-03
 718.111,138.619, 4.197280e-03
 719.111,138.819, 4.201262e-03
 720.111,139.019, 4.203457e-03
 721.111,139.219, 4.205752e-03
 722.111,139.419, 4.208772e-03
 723.111,139.619, 4.210972e-03
 724.111,139.819, 4.213952e-03
 725.111,140.019, 4.218006e-03
 726.111,140.219, 4.220745e-03
 727.111,140.419, 4.221450e-03
 728.111,140.619, 4.225961e-03
 729.111,140.819, 4.229183e-03
 730.111,141.019, 4.232508e-03
 731.111,141.219, 4.236207e-03
 732.111,141.42, 4.237048e-03
 733.111,141.62, 4.242536e-03
 734.111,141.819, 4.243134e-03
 735.111,142.019, 4.248746e-03
 736.111,142.219, 4.249206e-03
 737.111,142.419, 4.252314e-03
 738.111,142.62, 4.255365e-03
 739.111,142.819, 4.259538e-03
 740.111,143.019, 4.262684e-03
 741.111,143.219, 4.266393e-03
 742.111,143.419, 4.269336e-03
 743.111,143.62, 4.271596e-03
 744.111,143.82, 4.272935e-03
 745.111,144.019, 4.275911e-03
 746.111,144.219, 4.279268e-03
 747.111,144.42, 4.281901e-03
 748.111,144.619, 4.284998e-03
 749.111,144.819, 4.289438e-03
 750.111,145.02, 4.290398e-03
 751.111,145.22, 4.293479e-03
 752.111,145.42, 4.297165e-03
 753.111,145.62, 4.298191e-03
 754.111,145.819, 4.305146e-03
 755.111,146.019, 4.299108e-03
 756.111,146.219, 4.307818e-03
 757.111,146.419, 4.307061e-03
 758.111,146.619, 4.311703e-03
 759.111,146.82, 4.313318e-03
 760.111,147.02, 4.319351e-03
 761.111,147.22, 4.320542e-03
 762.111,147.419, 4.318362e-03
 763.111,147.619, 4.324826e-03
 764.111,147.819, 4.327244e-03
 765.111,148.02, 4.328175e-03
 766.111,148.22, 4.328209e-03
 767.111,148.419, 4.331572e-03
 768.111,148.62, 4.334117e-03
 769.111,148.82, 4.344356e-03
 770.111,149.02, 4.341479e-03
 771.111,149.22, 4.354070e-03
 772.111,149.42, 4.354282e-03
 773.111,149.62, 4.348829e-03
 774.111,149.82, 4.354751e-03
 775.111,150.02, 4.360292e-03
 776.111,150.22, 4.364618e-03
 777.111,150.42, 4.365931e-03
 778.111,150.62, 4.369074e-03
 779.111,150.82, 4.374216e-03
 780.111,151.02, 4.374960e-03
 781.111,151.22, 4.378659e-03
 782.111,151.42, 4.382980e-03
 783.111,151.62, 4.385855e-03
 784.111,151.82, 4.393057e-03
 785.111,152.02, 4.393176e-03
 786.111,152.22, 4.401001e-03
 787.111,152.42, 4.401684e-03
 788.111,152.62, 4.405710e-03
 789.111,152.82, 4.407108e-03
 790.111,153.02, 4.410872e-03
 791.111,153.22, 4.417766e-03
 792.111,153.419, 4.420597e-03
 793.111,153.62, 4.421695e-03
 794.111,153.82, 4.424815e-03
 795.111,154.02, 4.426720e-03
 796.111,154.22, 4.427155e-03
 797.111,154.42, 4.432661e-03
 798.111,154.62, 4.437495e-03
 799.111,154.82, 4.440934e-03
 800.111,155.02, 4.447412e-03
 801.111,155.22, 4.449761e-03
 802.111,155.42, 4.450789e-03
 803.111,155.621, 4.457244e-03
 804.111,155.82, 4.461764e-03
 805.111,156.02, 4.459740e-03
 806.111,156.22, 4.467226e-03
 807.111,156.42, 4.472785e-03
 808.111,156.62, 4.476341e-03
 809.111,156.82, 4.477010e-03
 810.111,157.02, 4.481793e-03
 811.111,157.221, 4.482013e-03
 812.111,157.421, 4.484258e-03
 813.111,157.62, 4.487078e-03
 814.111,157.82, 4.491335e-03
 815.111,158.02, 4.494245e-03
 816.111,158.22, 4.494133e-03
 817.111,158.42, 4.504734e-03
 818.111,158.62, 4.502882e-03
 819.111,158.82, 4.508339e-03
 820.111,159.02, 4.508656e-03
 821.111,159.22, 4.509626e-03
 822.111,159.42, 4.515363e-03
 823.111,159.62, 4.522016e-03
 824.111,159.82, 4.525485e-03
 825.111,160.02, 4.521245e-03
 826.111,160.22, 4.523945e-03
 827.111,160.42, 4.531699e-03
 828.111,160.62, 4.538741e-03
 829.111,160.82, 4.544647e-03
 830.111,161.02, 4.542271e-03
 831.111,161.22, 4.552796e-03
 832.111,161.42, 4.555151e-03
 833.111,161.62, 4.559135e-03
 834.111,161.82, 4.555094e-03
 835.111,162.02, 4.555997e-03
 836.111,162.22, 4.558483e-03
 837.111,162.42, 4.573539e-03
 838.111,162.62, 4.579294e-03
 839.111,162.82, 4.570448e-03
 840.111,163.02, 4.587784e-03
 841.111,163.22, 4.591722e-03
 842.111,163.42, 4.582631e-03
 843.111,163.62, 4.592595e-03
 844.111,163.82, 4.597311e-03
 845.111,164.02, 4.595530e-03
 846.111,164.22, 4.592282e-03
 847.111,164.42, 4.610161e-03
 848.111,164.62, 4.605461e-03
 849.111,164.82, 4.615012e-03
 850.111,165.021, 4.618902e-03
 851.111,165.22, 4.619981e-03
 852.111,165.42, 4.619310e-03
 853.111,165.62, 4.617897e-03
 854.111,165.82, 4.624126e-03
 855.111,166.02, 4.632014e-03
 856.111,166.22, 4.636964e-03
 857.111,166.42, 4.627905e-03
 858.111,166.62, 4.639678e-03
 859.111,166.82, 4.636361e-03
 860.111,167.02, 4.648857e-03
 861.111,167.22, 4.643052e-03
 862.111,167.42, 4.653534e-03
 863.111,167.62, 4.646804e-03
 864.111,167.821, 4.653206e-03
 865.111,168.021, 4.654479e-03
 866.111,168.221, 4.661112e-03
 867.111,168.421, 4.664790e-03
 868.111,168.621, 4.663678e-03
 869.111,168.821, 4.663303e-03
 870.111,169.021, 4.666292e-03
 871.111,169.221, 4.658388e-03
 872.111,169.421, 4.666157e-03
 873.111,169.621, 4.678338e-03
 874.111,169.821, 4.667320e-03
 875.111,170.02, 4.668936e-03
 876.111,170.22, 4.677839e-03
 877.111,170.42, 4.673484e-03
 878.111,170.62, 4.676584e-03
 879.111,170.821, 4.675077e-03
 880.111,171.021, 4.678168e-03
 881.111,171.22, 4.682848e-03
 882.111,171.42, 4.690060e-03
 883.111,171.621, 4.697210e-03
 884.111,171.821, 4.685042e-03
 885.111,172.021, 4.690129e-03
 886.111,172.221, 4.696192e-03
 887.111,172.421, 4.690296e-03
 888.111,172.621, 4.690641e-03
 889.111,172.821, 4.696896e-03
 890.111,173.021, 4.703628e-03
 891.111,173.221, 4.696896e-03
 892.111,173.421, 4.695582e-03
 893.111,173.621, 4.701314e-03
 894.111,173.821, 4.701516e-03
 895.111,174.021, 4.700935e-03
 896.111,174.221, 4.702713e-03
 897.111,174.421, 4.704137e-03
 898.111,174.621, 4.704589e-03
 899.111,174.821, 4.705914e-03
 900.111,175.021, 4.701838e-03
 901.111,175.221, 4.706727e-03
 902.111,175.421, 4.702789e-03
 903.111,175.621, 4.708743e-03
 904.111,175.821, 4.707693e-03
 905.111,176.021, 4.708799e-03
 906.111,176.221, 4.708352e-03
 907.111,176.421, 4.710349e-03
 908.111,176.621, 4.709450e-03
 909.111,176.821, 4.708350e-03
 910.111,177.021, 4.712669e-03
 911.111,177.221, 4.712998e-03
 912.111,177.421, 4.713792e-03
 913.111,177.621, 4.713308e-03
 914.111,177.821, 4.715688e-03
 915.111,178.021, 4.714712e-03
 916.111,178.221, 4.715489e-03
 917.111,178.421, 4.715252e-03
 918.111,178.621, 4.716950e-03
 919.111,178.821, 4.716371e-03
 920.111,179.021, 4.717693e-03
 921.111,179.221, 4.716632e-03
 922.111,179.421, 4.715817e-03
 923.111,179.621, 4.717504e-03
 924.111,179.821, 4.716370e-03
 925.111,180.021, 4.716258e-03
 926.111,180.221, 4.718077e-03
 927.111,180.421, 4.714937e-03
 928.111,180.621, 4.715494e-03
 929.111,180.821, 4.715429e-03
 930.111,181.021, 4.715632e-03
 931.111,181.221, 4.714339e-03
 932.111,181.421, 4.713637e-03
 933.111,181.621, 4.714202e-03
 934.111,181.821, 4.714701e-03
 935.111,182.021, 4.713466e-03
 936.111,182.221, 4.712689e-03
 937.111,182.421, 4.711314e-03
 938.111,182.621, 4.709415e-03
 939.111,182.821, 4.709754e-03
 940.111,183.021, 4.709814e-03
 941.111,183.221, 4.707704e-03
 942.111,183.421, 4.706681e-03
 943.111,183.621, 4.705991e-03
 944.111,183.821, 4.705406e-03
 945.111,184.021, 4.702946e-03
 946.111,184.221, 4.700852e-03
 947.111,184.421, 4.699105e-03
 948.111,184.621, 4.697336e-03
 949.111,184.821, 4.696780e-03
 950.111,185.021, 4.695530e-03
 951.111,185.221, 4.692742e-03
 952.111,185.421, 4.691912e-03
 953.111,185.621, 4.690353e-03
 954.111,185.821, 4.690399e-03
 955.111,186.021, 4.688567e-03
 956.111,186.221, 4.687921e-03
 957.111,186.421, 4.685579e-03
 958.111,186.621, 4.682639e-03
 959.111,186.821, 4.680618e-03
 960.111,187.021, 4.678181e-03
 961.111,187.221, 4.677346e-03
 962.111,187.421, 4.675086e-03
 963.111,187.621, 4.674223e-03
 964.111,187.821, 4.673183e-03
 965.111,188.021, 4.670260e-03
 966.111,188.221, 4.666541e-03
 967.111,188.421, 4.665416e-03
 968.111,188.621, 4.662348e-03
 969.111,188.821, 4.659742e-03
 970.111,189.021, 4.657209e-03
 971.111,189.221, 4.655503e-03
 972.111,189.421, 4.654315e-03
 973.111,189.621, 4.652347e-03
 974.111,189.821, 4.651715e-03
 975.111,190.021, 4.651894e-03
 976.111,190.221, 4.650873e-03
 977.111,190.422, 4.649925e-03
 978.111,190.621, 4.650030e-03
 979.111,190.821, 4.650469e-03
 980.111,191.021, 4.649083e-03
 981.111,191.221, 4.650372e-03
 982.111,191.421, 4.649786e-03
 983.111,191.621, 4.649908e-03
 984.111,191.821, 4.649680e-03
 985.111,192.021, 4.650021e-03
 986.111,192.221, 4.649988e-03
 987.111,192.421, 4.650647e-03
 988.111,192.621, 4.652011e-03
 989.111,192.822, 4.653261e-03
 990.111,193.021, 4.653773e-03
 991.111,193.221, 4.653889e-03
 992.111,193.421, 4.654896e-03
 993.111,193.621, 4.655293e-03
 994.111,193.821, 4.656362e-03
 995.111,194.021, 4.656667e-03
 996.111,194.221, 4.657491e-03
 997.111,194.422, 4.657688e-03
 998.111,194.621, 4.658735e-03
 999.111,194.821, 4.658708e-03
1000.11,195.022, 4.659634e-03
1001.11,195.222, 4.660517e-03
1002.11,195.421, 4.661286e-03
1003.11,195.621, 4.661902e-03
1004.11,195.821, 4.661486e-03
1005.11,196.021, 4.662477e-03
1006.11,196.221, 4.663501e-03
1007.11,196.421, 4.664131e-03
1008.11,196.622, 4.664695e-03
1009.11,196.821, 4.665440e-03
1010.11,197.021, 4.667213e-03
1011.11,197.222, 4.667352e-03
1012.11,197.421, 4.667578e-03
1013.11,197.621, 4.669320e-03
1014.11,197.821, 4.669304e-03
1015.11,198.022, 4.670394e-03
1016.11,198.221, 4.671552e-03
1017.11,198.421, 4.673766e-03
1018.11,198.622, 4.675172e-03
1019.11,198.822, 4.677306e-03
1020.11,199.022, 4.677083e-03
1021.11,199.221, 4.675958e-03
1022.11,199.421, 4.674602e-03
1023.11,199.622, 4.675543e-03
1024.11,199.822, 4.675638e-03
1025.11,200.022, 4.676515e-03
1026.11,200.221, 4.676634e-03
1027.11,200.422, 4.677670e-03
1028.11,200.622, 4.677974e-03
1029.11,200.821, 4.680198e-03
1030.11,201.021, 4.681457e-03
1031.11,201.221, 4.682563e-03
1032.11,201.421, 4.682814e-03
1033.11,201.621, 4.683089e-03
1034.11,201.821, 4.683569e-03
1035.11,202.021, 4.683333e-03
1036.11,202.221, 4.684069e-03
1037.11,202.421, 4.684435e-03
1038.11,202.621, 4.685605e-03
1039.11,202.822, 4.686385e-03
1040.11,203.021, 4.687395e-03
1041.11,203.222, 4.688330e-03
1042.11,203.421, 4.689656e-03
1043.11,203.622, 4.690513e-03
1044.11,203.822, 4.691631e-03
1045.11,204.022, 4.692361e-03
1046.11,204.222, 4.693255e-03
1047.11,204.422, 4.694234e-03
1048.11,204.621, 4.694961e-03
1049.11,204.821, 4.696173e-03
1050.11,205.021, 4.696724e-03
1051.11,205.221, 4.696379e-03
1052.11,205.422, 4.697627e-03
1053.11,205.622, 4.697198e-03
1054.11,205.821, 4.698125e-03
1055.11,206.021, 4.697447e-03
1056.11,206.222, 4.698412e-03
1057.11,206.422, 4.698781e-03
1058.11,206.622, 4.698114e-03
1059.11,206.822, 4.699560e-03
1060.11,207.022, 4.699606e-03
1061.11,207.222, 4.700311e-03
1062.11,207.422, 4.700033e-03
1063.11,207.622, 4.700390e-03
1064.11,207.822, 4.700619e-03
1065.11,208.022, 4.700904e-03
1066.11,208.222, 4.700687e-03
1067.11,208.422, 4.700922e-03
1068.11,208.622, 4.701518e-03
1069.11,208.822, 4.700476e-03
1070.11,209.022, 4.700407e-03
1071.11,209.222, 4.699904e-03
1072.11,209.422, 4.700274e-03
1073.11,209.621, 4.700087e-03
1074.11,209.821, 4.700524e-03
1075.11,210.021, 4.700923e-03
1076.11,210.221, 4.699850e-03
1077.11,210.421, 4.701074e-03
1078.11,210.622, 4.700757e-03
1079.11,210.822, 4.702372e-03
1080.11,211.022, 4.702458e-03
1081.11,211.222, 4.702816e-03
1082.11,211.422, 4.704716e-03
1083.11,211.622, 4.706395e-03
1084.11,211.822, 4.709331e-03
1085.11,212.022, 4.710067e-03
1086.11,212.222, 4.712964e-03
1087.11,212.422, 4.714188e-03
1088.11,212.622, 4.713681e-03
1089.11,212.822, 4.715489e-03
1090.11,213.022, 4.717576e-03
1091.11,213.222, 4.718621e-03
1092.11,213.422, 4.720341e-03
1093.11,213.622, 4.722243e-03
1094.11,213.822, 4.723008e-03
1095.11,214.022, 4.727289e-03
1096.11,214.222, 4.729784e-03
1097.11,214.422, 4.732326e-03
1098.11,214.622, 4.733066e-03
1099.11,214.822, 4.735452e-03
1100.11,215.022, 4.736784e-03
1101.11,215.222, 4.738414e-03
1102.11,215.422, 4.740720e-03
1103.11,215.622, 4.742104e-03
1104.11,215.822, 4.743779e-03
1105.11,216.022, 4.745793e-03
1106.11,216.222, 4.747113e-03
1107.11,216.422, 4.749275e-03
1108.11,216.622, 4.751675e-03
1109.11,216.822, 4.753520e-03
1110.11,217.022, 4.756114e-03
1111.11,217.222, 4.758085e-03
1112.11,217.422, 4.760652e-03
1113.11,217.622, 4.763139e-03
1114.11,217.822, 4.764688e-03
1115.11,218.022, 4.768554e-03
1116.11,218.222, 4.770410e-03
1117.11,218.421, 4.773617e-03
1118.11,218.621, 4.776367e-03
1119.11,218.822, 4.779384e-03
1120.11,219.021, 4.782243e-03
1121.11,219.222, 4.785339e-03
1122.11,219.422, 4.789136e-03
1123.11,219.622, 4.793638e-03
1124.11,219.822, 4.798783e-03
1125.11,220.022, 4.802780e-03
1126.11,220.222, 4.809024e-03
1127.11,220.422, 4.815302e-03
1128.11,220.622, 4.821709e-03
1129.11,220.822, 4.827815e-03
1130.11,221.022, 4.835604e-03
1131.11,221.222, 4.844319e-03
1132.11,221.421, 4.852698e-03
1133.11,221.622, 4.864262e-03
1134.11,221.822, 4.871947e-03
1135.11,222.022, 4.880313e-03
1136.11,222.222, 4.887352e-03
1137.11,222.422, 4.888604e-03
1138.11,222.622, 4.889795e-03
1139.11,222.822, 4.890801e-03
1140.11,223.022, 4.888465e-03
1141.11,223.222, 4.885788e-03
1142.11,223.422, 4.883696e-03
1143.11,223.622, 4.877599e-03
1144.11,223.821, 4.862088e-03
1145.11,224.021, 4.847867e-03
1146.11,224.222, 4.829783e-03
1147.11,224.422, 4.809599e-03
1148.11,224.622, 4.788857e-03
1149.11,224.822, 4.763417e-03
1150.11,225.022, 4.735802e-03
1151.11,225.222, 4.702754e-03
1152.11,225.422, 4.670028e-03
1153.11,225.622, 4.642553e-03
1154.11,225.822, 4.614579e-03
1155.11,226.022, 4.589442e-03
1156.11,226.222, 4.567830e-03
1157.11,226.422, 4.548494e-03
1158.11,226.622, 4.531754e-03
1159.11,226.822, 4.520711e-03
1160.11,227.022, 4.509447e-03
1161.11,227.222, 4.496665e-03
1162.11,227.422, 4.486673e-03
1163.11,227.622, 4.473703e-03
1164.11,227.822, 4.460320e-03
1165.11,228.022, 4.450090e-03
1166.11,228.222, 4.439295e-03
1167.11,228.421, 4.428731e-03
1168.11,228.622, 4.421166e-03
1169.11,228.822, 4.413210e-03
1170.11,229.022, 4.405215e-03
1171.11,229.222, 4.399503e-03
1172.11,229.422, 4.395075e-03
1173.11,229.622, 4.390527e-03
1174.11,229.822, 4.383141e-03
1175.11,230.022, 4.375348e-03
1176.11,230.222, 4.366716e-03
1177.11,230.422, 4.361715e-03
1178.11,230.622, 4.357105e-03
1179.11,230.822, 4.352166e-03
1180.11,231.022, 4.345810e-03
1181.11,231.222, 4.337942e-03
1182.11,231.422, 4.330562e-03
1183.11,231.622, 4.326866e-03
1184.11,231.822, 4.322432e-03
1185.11,232.022, 4.319489e-03
1186.11,232.222, 4.316022e-03
1187.11,232.422, 4.311979e-03
1188.11,232.622, 4.308028e-03
1189.11,232.822, 4.304984e-03
1190.11,233.022, 4.302118e-03
1191.11,233.222, 4.298680e-03
1192.11,233.422, 4.297410e-03
1193.11,233.622, 4.294050e-03
1194.11,233.822, 4.289339e-03
1195.11,234.022, 4.282100e-03
1196.11,234.222, 4.274791e-03
1197.11,234.422, 4.266815e-03
1198.11,234.622, 4.259352e-03
1199.11,234.822, 4.250521e-03
1200.11,235.022, 4.244494e-03
1201.11,235.222, 4.237334e-03
1202.11,235.422, 4.229274e-03
1203.11,235.622, 4.220824e-03
1204.11,235.822, 4.212518e-03
1205.11,236.022, 4.202828e-03
1206.11,236.222, 4.193626e-03
1207.11,236.422, 4.185091e-03
1208.11,236.622, 4.176761e-03
1209.11,236.822, 4.169039e-03
1210.11,237.022, 4.160380e-03
1211.11,237.222, 4.149351e-03
1212.11,237.422, 4.138838e-03
1213.11,237.622, 4.129635e-03
1214.11,237.822, 4.119915e-03
1215.11,238.022, 4.109487e-03
1216.11,238.222, 4.096874e-03
1217.11,238.422, 4.085849e-03
1218.11,238.622, 4.074228e-03
1219.11,238.822, 4.062194e-03
1220.11,239.022, 4.050667e-03
1221.11,239.222, 4.039196e-03
1222.11,239.422, 4.028131e-03
1223.11,239.622, 4.014646e-03
1224.11,239.822, 4.002181e-03
1225.11,240.022, 3.988537e-03
1226.11,240.222, 3.976122e-03
1227.11,240.422, 3.960790e-03
1228.11,240.622, 3.945420e-03
1229.11,240.822, 3.929871e-03
1230.11,241.022, 3.913385e-03
1231.11,241.222, 3.896996e-03
1232.11,241.422, 3.879994e-03
1233.11,241.622, 3.861719e-03
1234.11,241.822, 3.846029e-03
1235.11,242.022, 3.827160e-03
1236.11,242.222, 3.808118e-03
1237.11,242.422, 3.789317e-03
1238.11,242.622, 3.765929e-03
1239.11,242.822, 3.742684e-03
1240.11,243.022, 3.721018e-03
1241.11,243.222, 3.697357e-03
1242.11,243.422, 3.674121e-03
1243.11,243.622, 3.650053e-03
1244.11,243.822, 3.627288e-03
1245.11,244.022, 3.601590e-03
1246.11,244.222, 3.575378e-03
1247.11,244.422, 3.546558e-03
1248.11,244.622, 3.518711e-03
1249.11,244.822, 3.490077e-03
1250.11,245.022, 3.464593e-03
1251.11,245.222, 3.431714e-03
1252.11,245.422, 3.401386e-03
1253.11,245.622, 3.365308e-03
1254.11,245.822, 3.328930e-03
1255.11,246.022, 3.293705e-03
1256.11,246.222, 3.251786e-03
1257.11,246.422, 3.199121e-03
1258.11,246.622, 3.142949e-03
1259.11,246.822, 3.086145e-03
1260.11,247.022, 3.034876e-03
1261.11,247.222, 2.979655e-03
1262.11,247.422, 2.923575e-03
1263.11,247.622, 2.870658e-03
1264.11,247.822, 2.814832e-03
1265.11,248.021, 2.759843e-03
1266.11,248.221, 2.704274e-03
1267.11,248.422, 2.648113e-03
1268.11,248.622, 2.594537e-03
1269.11,248.822, 2.539763e-03
1270.11,249.022, 2.492855e-03
1271.11,249.222, 2.453522e-03
1272.11,249.422, 2.412115e-03
1273.11,249.622, 2.375580e-03
1274.11,249.822, 2.335878e-03
1275.11,250.022, 2.299568e-03
1276.11,250.222, 2.261165e-03
1277.11,250.422, 2.225748e-03
1278.11,250.622, 2.190244e-03
1279.11,250.822, 2.151732e-03
1280.11,251.022, 2.109111e-03
1281.11,251.222, 2.068833e-03
1282.11,251.422, 2.030868e-03
1283.11,251.622, 1.989108e-03
1284.11,251.822, 1.952277e-03
1285.11,252.022, 1.911504e-03
1286.11,252.222, 1.870477e-03
1287.11,252.422, 1.830767e-03
1288.11,252.622, 1.798878e-03
1289.11,252.822, 1.760586e-03
1290.11,253.022, 1.724257e-03
1291.11,253.222, 1.688614e-03
1292.11,253.422, 1.657884e-03
1293.11,253.622, 1.629214e-03
1294.11,253.822, 1.600695e-03
1295.11,254.022, 1.577047e-03
1296.11,254.222, 1.552952e-03
1297.11,254.422, 1.528890e-03
1298.11,254.622, 1.508014e-03
1299.11,254.822, 1.489231e-03
1300.11,255.022, 1.466941e-03
1301.11,255.222, 1.444775e-03
1302.11,255.422, 1.428502e-03
1303.11,255.621, 1.409010e-03
1304.11,255.822, 1.399774e-03
1305.11,256.022, 1.403536e-03
1306.11,256.222, 1.411559e-03
1307.11,256.422, 1.420114e-03
1308.11,256.622, 1.432178e-03
1309.11,256.822, 1.448247e-03
1310.11,257.021, 1.465131e-03
1311.11,257.222, 1.493998e-03
1312.11,257.422, 1.529236e-03
1313.11,257.622, 1.564732e-03
1314.11,257.822, 1.602616e-03
1315.11,258.022, 1.648460e-03
1316.11,258.222, 1.702597e-03
1317.11,258.422, 1.760080e-03
1318.11,258.622, 1.830186e-03
1319.11,258.821, 1.907269e-03
1320.11,259.022, 1.989398e-03
1321.11,259.221, 2.086057e-03
1322.11,259.421, 2.201668e-03
1323.11,259.622, 2.321255e-03
1324.11,259.822, 2.450715e-03
1325.11,260.022, 2.578563e-03
1326.11,260.222, 2.714420e-03
1327.11,260.422, 2.823363e-03
1328.11,260.622, 2.923493e-03
1329.11,260.822, 3.019621e-03
1330.11,261.022, 2.993405e-03
1331.11,261.222, 2.847494e-03
1332.11,261.422, 2.823100e-03
1333.11,261.622, 2.836289e-03
1334.11,261.822, 2.873521e-03
1335.11,262.022, 2.930758e-03
1336.11,262.222, 2.994928e-03
1337.11,262.422, 3.060974e-03
1338.11,262.622, 3.119492e-03
1339.11,262.822, 3.070027e-03
1340.11,263.021, 3.052541e-03
1341.11,263.221, 2.841965e-03
1342.11,263.421, 2.769062e-03
1343.11,263.622, 2.786442e-03
1344.11,263.822, 2.854360e-03
1345.11,264.022, 2.857382e-03
1346.11,264.222, 2.427643e-03
1347.11,264.422, 2.150524e-03
1348.11,264.622, 1.940446e-03
1349.11,264.822, 1.742913e-03
1350.11,265.021, 1.570914e-03
1351.11,265.221, 1.392162e-03
1352.11,265.421, 1.173189e-03
1353.11,265.621, 9.248553e-04
1354.11,265.821, 7.445614e-04
1355.11,266.022, 6.233788e-04
1356.11,266.221, 5.079438e-04
1357.11,266.421, 3.062399e-04
1358.11,266.621,-5.578138e-05
1359.11,266.821,-4.570095e-04
1359.86,266.971,-8.307275e-04